timestamp,packet_count,pitch,roll,yaw,altitude,velocity,accel_x,accel_y,accel_z,pressure_pa,imu_temp_c,gps_fix,gps_sats,gps_lat,gps_lon,gps_alt_m,gps_speed_m_s,vbat,rssi
2025-11-09T20:03:05.778191,0,-1.35,1.83,202.1,174.49,-0.24,0.023,0.033,1.025,99246.63,27.59,0,0,0.0,0.0,0.0,0.0,0.96,-28.0
2025-11-09T20:03:07.741769,1,-1.35,1.82,202.09,174.38,2.1,0.023,0.031,1.024,99247.95,27.64,0,0,0.0,0.0,0.0,0.0,0.96,-26.0
2025-11-09T20:03:07.840287,2,-1.35,1.82,202.09,174.5,1.17,0.023,0.032,1.028,99246.58,27.61,0,0,0.0,0.0,0.0,0.0,0.96,-26.0
2025-11-09T20:03:07.941613,3,-1.35,1.82,202.09,174.5,0.0,0.024,0.033,1.028,99246.58,27.63,0,0,0.0,0.0,0.0,0.0,0.96,-26.0
2025-11-09T20:03:08.043685,4,-1.35,1.82,202.09,174.47,-0.3,0.023,0.032,1.028,99246.92,27.66,0,0,0.0,0.0,0.0,0.0,0.96,-26.0
2025-11-09T20:03:08.142483,5,-1.34,1.82,202.08,174.43,-0.43,0.021,0.034,1.028,99247.44,27.65,0,0,0.0,0.0,0.0,0.0,0.96,-26.0
2025-11-09T20:03:08.240856,6,-1.34,1.82,202.09,174.45,0.2,0.023,0.034,1.027,99247.2,27.65,0,0,0.0,0.0,0.0,0.0,0.96,-25.0
2025-11-09T20:03:08.342566,7,-1.34,1.82,202.09,174.45,0.0,0.024,0.034,1.029,99247.2,27.66,0,0,0.0,0.0,0.0,0.0,0.96,-26.0
2025-11-09T20:03:08.441525,8,-1.34,1.83,202.1,174.46,0.14,0.024,0.034,1.029,99247.04,27.67,0,0,0.0,0.0,0.0,0.0,0.96,-26.0
2025-11-09T20:03:08.543451,9,-1.34,1.83,202.11,174.39,-0.69,0.022,0.034,1.027,99247.86,27.69,0,0,0.0,0.0,0.0,0.0,0.96,-26.0
2025-11-09T20:03:08.642105,10,-1.35,1.83,202.12,174.63,2.36,0.023,0.032,1.03,99245.06,27.67,0,0,0.0,0.0,0.0,0.0,0.96,-26.0
2025-11-09T20:03:08.744411,11,-1.34,1.83,202.12,174.41,-2.15,0.023,0.031,1.023,99247.61,27.62,0,0,0.0,0.0,0.0,0.0,0.96,-26.0
2025-11-09T20:03:08.842237,12,-1.34,1.83,202.12,174.45,0.36,0.023,0.033,1.025,99247.19,27.64,0,0,0.0,0.0,0.0,0.0,0.96,-27.0
2025-11-09T20:03:08.942609,13,-1.35,1.83,202.14,174.39,-0.55,0.025,0.034,1.028,99247.84,27.65,0,0,0.0,0.0,0.0,0.0,0.96,-27.0
2025-11-09T20:03:09.043339,14,-1.35,1.83,202.15,174.31,-0.86,0.022,0.032,1.028,99248.84,27.66,0,0,0.0,0.0,0.0,0.0,0.96,-26.0
2025-11-09T20:03:09.142193,15,-1.35,1.83,202.18,174.29,-0.12,0.022,0.033,1.03,99248.98,27.61,0,0,0.0,0.0,0.0,0.0,0.96,-26.0
2025-11-09T20:03:09.240287,16,-1.35,1.83,202.17,174.39,0.99,0.023,0.033,1.03,99247.81,27.66,0,0,0.0,0.0,0.0,0.0,0.96,-26.0
2025-11-09T20:03:09.342521,17,-1.35,1.83,202.18,174.52,1.24,0.024,0.031,1.029,99246.34,27.66,0,0,0.0,0.0,0.0,0.0,0.96,-26.0
2025-11-09T20:03:09.441588,18,-1.35,1.83,202.17,174.52,0.02,0.022,0.031,1.03,99246.33,27.64,0,0,0.0,0.0,0.0,0.0,0.96,-27.0
2025-11-09T20:03:09.543618,19,-1.35,1.83,202.18,174.36,-1.6,0.024,0.034,1.028,99248.21,27.61,0,0,0.0,0.0,0.0,0.0,0.96,-26.0
2025-11-09T20:03:09.641669,20,-1.35,1.83,202.19,174.39,0.34,0.023,0.031,1.028,99247.81,27.67,0,0,0.0,0.0,0.0,0.0,0.96,-25.0
2025-11-09T20:03:09.740787,21,-1.35,1.83,202.2,174.43,0.39,0.023,0.033,1.025,99247.35,27.6,0,0,0.0,0.0,0.0,0.0,0.96,-25.0
2025-11-09T20:03:09.842118,22,-1.35,1.84,202.21,174.43,0.0,0.024,0.03,1.028,99247.35,27.64,0,0,0.0,0.0,0.0,0.0,0.96,-26.0
2025-11-09T20:03:09.944278,23,-1.35,1.83,202.21,174.38,-0.54,0.024,0.032,1.027,99247.98,27.62,0,0,0.0,0.0,0.0,0.0,0.96,-26.0
2025-11-09T20:03:10.042736,24,-1.35,1.84,202.22,174.4,0.23,0.024,0.033,1.028,99247.72,27.63,0,0,0.0,0.0,0.0,0.0,0.96,-26.0
2025-11-09T20:03:10.141688,25,-1.35,1.84,202.22,174.53,1.29,0.021,0.032,1.03,99246.19,27.62,0,0,0.0,0.0,0.0,0.0,0.96,-25.0
2025-11-09T20:03:10.243572,26,-1.35,1.84,202.22,174.36,-1.71,0.025,0.033,1.028,99248.21,27.64,0,0,0.0,0.0,0.0,0.0,0.96,-26.0
2025-11-09T20:03:10.342256,27,-1.35,1.84,202.22,174.55,1.91,0.022,0.032,1.029,99245.95,27.65,0,0,0.0,0.0,0.0,0.0,0.96,-26.0
2025-11-09T20:03:10.444064,28,-1.35,1.84,202.23,174.48,-0.75,0.023,0.032,1.028,99246.84,27.64,0,0,0.0,0.0,0.0,0.0,0.96,-27.0
2025-11-09T20:03:10.543570,29,-1.35,1.84,202.22,174.34,-1.33,0.023,0.033,1.029,99248.41,27.66,0,0,0.0,0.0,0.0,0.0,0.96,-25.0
2025-11-09T20:03:10.641459,30,-1.35,1.84,202.23,174.46,1.19,0.022,0.031,1.029,99247.01,27.69,0,0,0.0,0.0,0.0,0.0,0.96,-26.0
2025-11-09T20:03:10.743125,31,-1.34,1.83,202.22,174.48,0.22,0.023,0.032,1.026,99246.75,27.62,0,0,0.0,0.0,0.0,0.0,0.96,-26.0
2025-11-09T20:03:10.841838,32,-1.34,1.83,202.2,174.36,-1.24,0.024,0.032,1.026,99248.21,27.63,0,0,0.0,0.0,0.0,0.0,0.96,-26.0
2025-11-09T20:03:10.943543,33,-1.34,1.83,202.18,174.48,1.21,0.023,0.032,1.027,99246.78,27.65,0,0,0.0,0.0,0.0,0.0,0.96,-26.0
2025-11-09T20:03:11.042470,34,-1.34,1.83,202.17,174.31,-1.71,0.024,0.034,1.028,99248.81,27.66,0,0,0.0,0.0,0.0,0.0,0.96,-26.0
2025-11-09T20:03:11.141373,35,-1.34,1.83,202.17,174.32,0.12,0.023,0.031,1.028,99248.67,27.61,0,0,0.0,0.0,0.0,0.0,0.96,-26.0
2025-11-09T20:03:11.242812,36,-1.34,1.82,202.16,174.48,1.6,0.023,0.033,1.029,99246.78,27.67,0,0,0.0,0.0,0.0,0.0,0.96,-26.0
2025-11-09T20:03:11.341955,37,-1.34,1.83,202.19,174.48,0.0,0.023,0.03,1.029,99246.78,27.64,0,0,0.0,0.0,0.0,0.0,0.96,-25.0
2025-11-09T20:03:11.443605,38,-1.34,1.83,202.18,174.53,0.47,0.022,0.034,1.03,99246.23,27.66,0,0,0.0,0.0,0.0,0.0,0.96,-25.0
2025-11-09T20:03:11.542157,39,-1.34,1.83,202.16,174.73,2.01,0.022,0.034,1.03,99243.86,27.65,0,0,0.0,0.0,0.0,0.0,0.96,-25.0
2025-11-09T20:03:11.644257,40,-1.34,1.83,202.17,174.66,-0.73,0.025,0.033,1.028,99244.72,27.66,0,0,0.0,0.0,0.0,0.0,0.96,-26.0
2025-11-09T20:03:11.742940,41,-1.34,1.82,202.15,174.66,0.0,0.024,0.03,1.026,99244.72,27.62,0,0,0.0,0.0,0.0,0.0,0.96,-25.0
2025-11-09T20:03:11.844841,42,-1.34,1.82,202.15,174.59,-0.66,0.023,0.033,1.03,99245.5,27.61,0,0,0.0,0.0,0.0,0.0,0.96,-25.0
2025-11-09T20:03:11.943363,43,-1.34,1.82,202.14,174.85,2.57,0.023,0.032,1.028,99242.47,27.61,0,0,0.0,0.0,0.0,0.0,0.96,-25.0
2025-11-09T20:03:12.045236,44,-1.34,1.82,202.14,174.46,-3.82,0.023,0.033,1.027,99246.98,27.68,0,0,0.0,0.0,0.0,0.0,0.96,-25.0
2025-11-09T20:03:12.143480,45,-1.34,1.82,202.14,174.52,0.54,0.024,0.033,1.029,99246.34,27.62,0,0,0.0,0.0,0.0,0.0,0.96,-25.0
2025-11-09T20:03:12.242068,46,-1.34,1.82,202.13,174.74,2.27,0.023,0.032,1.029,99243.67,27.66,0,0,0.0,0.0,0.0,0.0,0.96,-24.0
2025-11-09T20:03:12.344433,47,-1.34,1.82,202.15,174.66,-0.8,0.023,0.032,1.028,99244.61,27.66,0,0,0.0,0.0,0.0,0.0,0.96,-26.0
2025-11-09T20:03:12.443181,48,-1.34,1.82,202.15,174.65,-0.17,0.022,0.032,1.03,99244.81,27.66,0,0,0.0,0.0,0.0,0.0,0.96,-26.0
2025-11-09T20:03:12.545254,49,-1.34,1.82,202.15,174.52,-1.28,0.023,0.032,1.03,99246.33,27.64,0,0,0.0,0.0,0.0,0.0,0.96,-26.0
2025-11-09T20:03:12.643553,50,-1.34,1.82,202.16,174.61,0.95,0.024,0.031,1.029,99245.21,27.7,0,0,0.0,0.0,0.0,0.0,0.96,-25.0
2025-11-09T20:03:12.745714,51,-1.34,1.83,202.18,174.39,-2.25,0.023,0.033,1.024,99247.87,27.61,0,0,0.0,0.0,0.0,0.0,0.96,-26.0
2025-11-09T20:03:12.844058,52,-1.35,1.83,202.19,174.52,1.36,0.025,0.032,1.028,99246.27,27.64,0,0,0.0,0.0,0.0,0.0,0.96,-25.0
2025-11-09T20:03:12.943009,53,-1.35,1.83,202.18,174.48,-0.49,0.023,0.034,1.027,99246.84,27.59,0,0,0.0,0.0,0.0,0.0,0.96,-26.0
2025-11-09T20:03:13.041407,54,-1.35,1.83,202.18,174.49,0.12,0.024,0.034,1.029,99246.7,27.61,0,0,0.0,0.0,0.0,0.0,0.96,-25.0
2025-11-09T20:03:13.143616,55,-1.35,1.83,202.19,174.45,-0.33,0.023,0.033,1.029,99247.09,27.64,0,0,0.0,0.0,0.0,0.0,0.96,-25.0
2025-11-09T20:03:13.241675,56,-1.35,1.83,202.2,174.51,0.56,0.021,0.032,1.028,99246.44,27.68,0,0,0.0,0.0,0.0,0.0,0.96,-25.0
2025-11-09T20:03:13.343732,57,-1.35,1.83,202.21,174.6,0.9,0.024,0.033,1.029,99245.38,27.62,0,0,0.0,0.0,0.0,0.0,0.96,-25.0
2025-11-09T20:03:13.442506,58,-1.35,1.83,202.21,174.38,-2.19,0.023,0.034,1.029,99247.95,27.66,0,0,0.0,0.0,0.0,0.0,0.96,-26.0
2025-11-09T20:03:13.544169,59,-1.35,1.84,202.23,174.42,0.34,0.022,0.032,1.029,99247.55,27.66,0,0,0.0,0.0,0.0,0.0,0.96,-25.0
2025-11-09T20:03:13.642906,60,-1.35,1.84,202.23,174.52,1.09,0.022,0.033,1.029,99246.27,27.66,0,0,0.0,0.0,0.0,0.0,0.96,-25.0
2025-11-09T20:03:13.741482,61,-1.35,1.84,202.23,174.65,1.28,0.024,0.033,1.024,99244.75,27.62,0,0,0.0,0.0,0.0,0.0,0.96,-25.0
2025-11-09T20:03:13.844574,62,-1.35,1.84,202.26,174.43,-2.28,0.025,0.033,1.027,99247.44,27.61,0,0,0.0,0.0,0.0,0.0,0.96,-26.0
2025-11-09T20:03:13.946246,63,-1.35,1.84,202.27,174.59,1.7,0.024,0.033,1.027,99245.44,27.68,0,0,0.0,0.0,0.0,0.0,0.96,-25.0
2025-11-09T20:03:14.044447,64,-1.35,1.84,202.29,174.44,-1.55,0.023,0.034,1.028,99247.27,27.63,0,0,0.0,0.0,0.0,0.0,0.96,-25.0
2025-11-09T20:03:14.142749,65,-1.35,1.84,202.31,174.58,1.4,0.023,0.032,1.028,99245.61,27.63,0,0,0.0,0.0,0.0,0.0,0.96,-25.0
2025-11-09T20:03:14.244799,66,-1.35,1.84,202.31,174.66,0.76,0.024,0.032,1.03,99244.72,27.64,0,0,0.0,0.0,0.0,0.0,0.96,-26.0
2025-11-09T20:03:14.343256,67,-1.35,1.85,202.33,174.89,2.39,0.024,0.032,1.028,99241.9,27.7,0,0,0.0,0.0,0.0,0.0,0.96,-25.0
2025-11-09T20:03:14.445507,68,-1.35,1.85,202.34,174.5,-3.96,0.022,0.033,1.029,99246.58,27.66,0,0,0.0,0.0,0.0,0.0,0.96,-25.0
2025-11-09T20:03:14.544063,69,-1.35,1.85,202.34,174.56,0.57,0.022,0.033,1.031,99245.9,27.66,0,0,0.0,0.0,0.0,0.0,0.96,-25.0
2025-11-09T20:03:14.642675,70,-1.35,1.85,202.36,174.7,1.44,0.022,0.033,1.03,99244.2,27.66,0,0,0.0,0.0,0.0,0.0,0.96,-26.0
2025-11-09T20:03:14.744904,71,-1.35,1.85,202.36,174.6,-0.99,0.024,0.032,1.026,99245.38,27.59,0,0,0.0,0.0,0.0,0.0,0.96,-25.0
2025-11-09T20:03:14.842930,72,-1.35,1.85,202.37,174.72,1.2,0.023,0.034,1.027,99243.95,27.64,0,0,0.0,0.0,0.0,0.0,0.96,-25.0
2025-11-09T20:03:14.941461,73,-1.35,1.85,202.37,174.79,0.67,0.023,0.034,1.027,99243.16,27.61,0,0,0.0,0.0,0.0,0.0,0.96,-26.0
2025-11-09T20:03:15.043855,74,-1.35,1.85,202.38,174.68,-1.06,0.022,0.032,1.029,99244.41,27.64,0,0,0.0,0.0,0.0,0.0,0.96,-26.0
2025-11-09T20:03:15.145867,75,-1.35,1.85,202.39,174.66,-0.2,0.023,0.032,1.028,99244.64,27.63,0,0,0.0,0.0,0.0,0.0,0.96,-26.0
2025-11-09T20:03:15.244147,76,-1.34,1.85,202.37,174.75,0.85,0.022,0.033,1.028,99243.64,27.66,0,0,0.0,0.0,0.0,0.0,0.96,-26.0
2025-11-09T20:03:15.346338,77,-1.34,1.85,202.37,174.46,-2.88,0.023,0.033,1.029,99247.05,27.68,0,0,0.0,0.0,0.0,0.0,0.96,-26.0
2025-11-09T20:03:15.445240,78,-1.34,1.84,202.36,174.37,-0.87,0.024,0.032,1.03,99248.07,27.68,0,0,0.0,0.0,0.0,0.0,0.96,-26.0
2025-11-09T20:03:15.543539,79,-1.34,1.84,202.37,174.71,3.34,0.023,0.034,1.029,99244.12,27.64,0,0,0.0,0.0,0.0,0.0,0.96,-26.0
2025-11-09T20:03:15.645726,80,-1.34,1.84,202.37,174.62,-0.82,0.023,0.032,1.03,99245.09,27.66,0,0,0.0,0.0,0.0,0.0,0.96,-26.0
2025-11-09T20:03:15.744373,81,-1.34,1.84,202.36,174.33,-2.93,0.023,0.033,1.025,99248.55,27.61,0,0,0.0,0.0,0.0,0.0,0.96,-25.0
2025-11-09T20:03:15.842429,82,-1.34,1.84,202.37,174.5,1.71,0.022,0.03,1.027,99246.53,27.6,0,0,0.0,0.0,0.0,0.0,0.96,-26.0
2025-11-09T20:03:15.945103,83,-1.34,1.84,202.36,174.4,-0.98,0.025,0.033,1.026,99247.7,27.66,0,0,0.0,0.0,0.0,0.0,0.96,-26.0
2025-11-09T20:03:16.043627,84,-1.34,1.84,202.34,174.39,-0.1,0.024,0.033,1.029,99247.81,27.59,0,0,0.0,0.0,0.0,0.0,0.96,-26.0
2025-11-09T20:03:16.145527,85,-1.34,1.84,202.33,174.16,-2.3,0.023,0.032,1.029,99250.53,27.65,0,0,0.0,0.0,0.0,0.0,0.96,-27.0
2025-11-09T20:03:16.243930,86,-1.34,1.84,202.34,174.42,2.59,0.024,0.032,1.029,99247.47,27.66,0,0,0.0,0.0,0.0,0.0,0.96,-26.0
2025-11-09T20:03:16.342321,87,-1.34,1.84,202.34,174.44,0.17,0.021,0.034,1.03,99247.27,27.63,0,0,0.0,0.0,0.0,0.0,0.96,-26.0
2025-11-09T20:03:16.444165,88,-1.34,1.84,202.34,174.51,0.7,0.022,0.033,1.028,99246.44,27.63,0,0,0.0,0.0,0.0,0.0,0.96,-27.0
2025-11-09T20:03:16.546486,89,-1.34,1.84,202.35,174.44,-0.65,0.024,0.032,1.029,99247.21,27.65,0,0,0.0,0.0,0.0,0.0,0.96,-27.0
2025-11-09T20:03:16.645102,90,-1.34,1.84,202.36,174.38,-0.69,0.023,0.033,1.029,99248.02,27.63,0,0,0.0,0.0,0.0,0.0,0.96,-27.0
2025-11-09T20:03:16.743619,91,-1.34,1.84,202.37,174.5,1.2,0.023,0.032,1.026,99246.61,27.59,0,0,0.0,0.0,0.0,0.0,0.96,-26.0
2025-11-09T20:03:16.845451,92,-1.34,1.84,202.34,174.64,1.47,0.024,0.033,1.026,99244.87,27.65,0,0,0.0,0.0,0.0,0.0,0.96,-27.0
2025-11-09T20:03:16.944365,93,-1.34,1.84,202.34,174.72,0.77,0.024,0.031,1.028,99243.95,27.62,0,0,0.0,0.0,0.0,0.0,0.96,-27.0
2025-11-09T20:03:17.046533,94,-1.34,1.83,202.33,174.57,-1.46,0.024,0.031,1.028,99245.67,27.66,0,0,0.0,0.0,0.0,0.0,0.96,-27.0
2025-11-09T20:03:17.144942,95,-1.34,1.83,202.32,174.66,0.85,0.022,0.032,1.03,99244.67,27.62,0,0,0.0,0.0,0.0,0.0,0.96,-26.0
2025-11-09T20:03:17.247174,96,-1.34,1.83,202.31,174.55,-1.13,0.023,0.033,1.027,99246.01,27.64,0,0,0.0,0.0,0.0,0.0,0.96,-27.0
2025-11-09T20:03:17.345306,97,-1.34,1.83,202.31,174.6,0.55,0.023,0.031,1.028,99245.36,27.66,0,0,0.0,0.0,0.0,0.0,0.96,-26.0
2025-11-09T20:03:17.444260,98,-1.34,1.83,202.33,174.41,-1.93,0.024,0.033,1.026,99247.64,27.69,0,0,0.0,0.0,0.0,0.0,0.96,-26.0
2025-11-09T20:03:17.545972,99,-1.34,1.84,202.35,174.51,1.06,0.023,0.033,1.029,99246.38,27.61,0,0,0.0,0.0,0.0,0.0,0.96,-26.0
2025-11-09T20:03:17.644973,100,-1.34,1.84,202.35,174.35,-1.65,0.024,0.031,1.029,99248.33,27.66,0,0,0.0,0.0,0.0,0.0,0.96,-26.0
2025-11-09T20:03:17.743311,101,-1.34,1.84,202.36,174.43,0.85,0.023,0.033,1.024,99247.33,27.57,0,0,0.0,0.0,0.0,0.0,0.96,-26.0
2025-11-09T20:03:17.845297,102,-1.34,1.84,202.36,174.47,0.31,0.023,0.033,1.025,99246.95,27.62,0,0,0.0,0.0,0.0,0.0,0.96,-26.0
2025-11-09T20:03:17.943690,103,-1.34,1.83,202.36,174.55,0.85,0.023,0.032,1.028,99245.95,27.62,0,0,0.0,0.0,0.0,0.0,0.96,-26.0
2025-11-09T20:03:18.045972,104,-1.34,1.84,202.38,174.34,-2.08,0.022,0.033,1.03,99248.41,27.62,0,0,0.0,0.0,0.0,0.0,0.96,-27.0
2025-11-09T20:03:18.144167,105,-1.34,1.84,202.39,174.42,0.8,0.022,0.033,1.028,99247.47,27.62,0,0,0.0,0.0,0.0,0.0,0.96,-26.0
2025-11-09T20:03:18.246397,106,-1.34,1.84,202.39,174.42,-0.07,0.024,0.035,1.029,99247.55,27.64,0,0,0.0,0.0,0.0,0.0,0.96,-27.0
2025-11-09T20:03:18.344755,107,-1.34,1.84,202.39,174.43,0.19,0.022,0.033,1.028,99247.33,27.63,0,0,0.0,0.0,0.0,0.0,0.96,-27.0
2025-11-09T20:03:18.443365,108,-1.34,1.84,202.41,174.57,1.4,0.022,0.031,1.028,99245.67,27.66,0,0,0.0,0.0,0.0,0.0,0.96,-27.0
2025-11-09T20:03:18.545743,109,-1.34,1.84,202.42,174.48,-0.91,0.023,0.033,1.03,99246.75,27.64,0,0,0.0,0.0,0.0,0.0,0.96,-28.0
2025-11-09T20:03:18.644289,110,-1.34,1.84,202.43,174.49,0.09,0.025,0.032,1.027,99246.64,27.67,0,0,0.0,0.0,0.0,0.0,0.96,-27.0
2025-11-09T20:03:18.746564,111,-1.34,1.84,202.44,174.46,-0.29,0.021,0.03,1.028,99246.98,27.61,0,0,0.0,0.0,0.0,0.0,0.96,-28.0
2025-11-09T20:03:18.844641,112,-1.34,1.84,202.45,174.64,1.74,0.023,0.032,1.027,99244.93,27.66,0,0,0.0,0.0,0.0,0.0,0.96,-27.0
2025-11-09T20:03:18.946942,113,-1.34,1.84,202.46,174.5,-1.4,0.024,0.032,1.028,99246.58,27.62,0,0,0.0,0.0,0.0,0.0,0.96,-27.0
2025-11-09T20:03:19.045299,114,-1.34,1.85,202.48,174.56,0.59,0.025,0.035,1.029,99245.88,27.61,0,0,0.0,0.0,0.0,0.0,0.96,-27.0
2025-11-09T20:03:19.147556,115,-1.34,1.84,202.47,174.38,-1.79,0.023,0.032,1.03,99247.98,27.66,0,0,0.0,0.0,0.0,0.0,0.96,-28.0
2025-11-09T20:03:19.245856,116,-1.34,1.84,202.48,174.53,1.5,0.023,0.034,1.029,99246.22,27.66,0,0,0.0,0.0,0.0,0.0,0.96,-26.0
2025-11-09T20:03:19.344678,117,-1.34,1.84,202.48,174.37,-1.57,0.023,0.031,1.029,99248.07,27.64,0,0,0.0,0.0,0.0,0.0,0.96,-25.0
2025-11-09T20:03:19.446404,118,-1.34,1.84,202.48,174.66,2.88,0.023,0.032,1.031,99244.67,27.64,0,0,0.0,0.0,0.0,0.0,0.96,-25.0
2025-11-09T20:03:19.545275,119,-1.34,1.84,202.48,174.42,-2.39,0.023,0.032,1.029,99247.5,27.67,0,0,0.0,0.0,0.0,0.0,0.96,-24.0
2025-11-09T20:03:19.643662,120,-1.34,1.84,202.47,174.7,2.77,0.022,0.032,1.029,99244.23,27.68,0,0,0.0,0.0,0.0,0.0,0.96,-24.0
2025-11-09T20:03:19.746119,121,-1.34,1.84,202.46,174.51,-1.89,0.022,0.032,1.027,99246.47,27.62,0,0,0.0,0.0,0.0,0.0,0.96,-24.0
2025-11-09T20:03:19.844230,122,-1.34,1.84,202.46,174.53,0.24,0.025,0.031,1.028,99246.19,27.64,0,0,0.0,0.0,0.0,0.0,0.96,-23.0
2025-11-09T20:03:19.946381,123,-1.34,1.84,202.46,174.33,-2.03,0.023,0.033,1.03,99248.59,27.62,0,0,0.0,0.0,0.0,0.0,0.96,-23.0
2025-11-09T20:03:20.044741,124,-1.34,1.84,202.48,174.38,0.48,0.023,0.031,1.03,99248.02,27.63,0,0,0.0,0.0,0.0,0.0,0.96,-22.0
2025-11-09T20:03:20.146979,125,-1.34,1.84,202.48,174.46,0.87,0.022,0.033,1.028,99246.98,27.67,0,0,0.0,0.0,0.0,0.0,0.96,-22.0
2025-11-09T20:03:20.245571,126,-1.34,1.84,202.48,174.58,1.16,0.022,0.032,1.029,99245.61,27.66,0,0,0.0,0.0,0.0,0.0,0.96,-22.0
2025-11-09T20:03:20.347842,127,-1.34,1.84,202.47,174.55,-0.29,0.023,0.036,1.031,99245.95,27.66,0,0,0.0,0.0,0.0,0.0,0.96,-23.0
2025-11-09T20:03:20.446235,128,-1.34,1.83,202.45,174.48,-0.71,0.024,0.035,1.03,99246.78,27.66,0,0,0.0,0.0,0.0,0.0,0.96,-23.0
2025-11-09T20:03:20.544737,129,-1.34,1.83,202.44,174.5,0.15,0.022,0.033,1.029,99246.61,27.69,0,0,0.0,0.0,0.0,0.0,0.96,-22.0
2025-11-09T20:03:20.646982,130,-1.34,1.83,202.43,174.38,-1.17,0.023,0.034,1.03,99247.98,27.69,0,0,0.0,0.0,0.0,0.0,0.96,-22.0
2025-11-09T20:03:20.745397,131,-1.33,1.83,202.42,174.54,1.58,0.024,0.031,1.026,99246.12,27.6,0,0,0.0,0.0,0.0,0.0,0.96,-22.0
2025-11-09T20:03:20.847713,132,-1.33,1.83,202.43,174.25,-2.88,0.023,0.033,1.029,99249.52,27.64,0,0,0.0,0.0,0.0,0.0,0.96,-22.0
2025-11-09T20:03:20.946480,133,-1.33,1.83,202.44,174.47,2.24,0.025,0.034,1.027,99246.87,27.63,0,0,0.0,0.0,0.0,0.0,0.96,-22.0
2025-11-09T20:03:21.045520,134,-1.33,1.83,202.43,174.5,0.25,0.022,0.033,1.028,99246.58,27.66,0,0,0.0,0.0,0.0,0.0,0.96,-22.0
2025-11-09T20:03:21.146322,135,-1.33,1.83,202.42,174.68,1.84,0.023,0.034,1.029,99244.41,27.67,0,0,0.0,0.0,0.0,0.0,0.96,-23.0
2025-11-09T20:03:21.248418,136,-1.33,1.83,202.42,174.56,-1.22,0.022,0.031,1.028,99245.84,27.67,0,0,0.0,0.0,0.0,0.0,0.96,-23.0
2025-11-09T20:03:21.347673,137,-1.33,1.83,202.4,174.54,-0.24,0.023,0.032,1.029,99246.12,27.67,0,0,0.0,0.0,0.0,0.0,0.96,-23.0
2025-11-09T20:03:21.445751,138,-1.33,1.82,202.38,174.38,-1.61,0.024,0.032,1.03,99248.02,27.68,0,0,0.0,0.0,0.0,0.0,0.96,-23.0
2025-11-09T20:03:21.544178,139,-1.33,1.83,202.39,174.66,2.83,0.023,0.033,1.03,99244.67,27.66,0,0,0.0,0.0,0.0,0.0,0.96,-22.0
2025-11-09T20:03:21.646302,140,-1.33,1.83,202.38,174.42,-2.39,0.024,0.032,1.03,99247.5,27.68,0,0,0.0,0.0,0.0,0.0,0.96,-22.0
2025-11-09T20:03:21.745318,141,-1.33,1.83,202.38,174.55,1.26,0.025,0.033,1.026,99246.02,27.63,0,0,0.0,0.0,0.0,0.0,0.96,-22.0
2025-11-09T20:03:21.847094,142,-1.33,1.83,202.38,174.49,-0.6,0.024,0.035,1.029,99246.73,27.62,0,0,0.0,0.0,0.0,0.0,0.96,-22.0
2025-11-09T20:03:21.949088,143,-1.33,1.83,202.39,174.48,-0.08,0.023,0.034,1.028,99246.81,27.64,0,0,0.0,0.0,0.0,0.0,0.96,-22.0
2025-11-09T20:03:22.047559,144,-1.33,1.83,202.39,174.31,-1.66,0.025,0.032,1.028,99248.78,27.63,0,0,0.0,0.0,0.0,0.0,0.96,-22.0
2025-11-09T20:03:22.146343,145,-1.33,1.83,202.4,174.25,-0.61,0.022,0.032,1.03,99249.5,27.7,0,0,0.0,0.0,0.0,0.0,0.96,-21.0
2025-11-09T20:03:22.244677,146,-1.33,1.83,202.4,174.46,2.08,0.021,0.033,1.028,99247.05,27.64,0,0,0.0,0.0,0.0,0.0,0.96,-22.0
2025-11-09T20:03:22.346889,147,-1.33,1.83,202.39,174.4,-0.62,0.025,0.033,1.029,99247.78,27.66,0,0,0.0,0.0,0.0,0.0,0.96,-23.0
2025-11-09T20:03:22.445359,148,-1.33,1.83,202.41,174.59,1.9,0.025,0.033,1.03,99245.53,27.71,0,0,0.0,0.0,0.0,0.0,0.96,-22.0
2025-11-09T20:03:22.547542,149,-1.33,1.83,202.42,174.47,-1.18,0.022,0.033,1.029,99246.92,27.71,0,0,0.0,0.0,0.0,0.0,0.96,-22.0
2025-11-09T20:03:22.645778,150,-1.33,1.83,202.43,174.47,0.02,0.024,0.033,1.03,99246.91,27.69,0,0,0.0,0.0,0.0,0.0,0.96,-22.0
2025-11-09T20:03:22.747945,151,-1.33,1.83,202.44,174.43,-0.45,0.023,0.031,1.025,99247.44,27.64,0,0,0.0,0.0,0.0,0.0,0.96,-22.0
2025-11-09T20:03:22.846283,152,-1.33,1.83,202.45,174.61,1.86,0.023,0.033,1.028,99245.24,27.63,0,0,0.0,0.0,0.0,0.0,0.96,-22.0
2025-11-09T20:03:22.944938,153,-1.33,1.83,202.46,174.61,0.03,0.023,0.033,1.028,99245.21,27.66,0,0,0.0,0.0,0.0,0.0,0.96,-22.0
2025-11-09T20:03:23.047078,154,-1.33,1.83,202.45,174.46,-1.55,0.024,0.033,1.029,99247.05,27.66,0,0,0.0,0.0,0.0,0.0,0.96,-23.0
2025-11-09T20:03:23.149142,155,-1.33,1.83,202.44,174.36,-1.01,0.023,0.035,1.031,99248.24,27.67,0,0,0.0,0.0,0.0,0.0,0.96,-22.0
2025-11-09T20:03:23.247697,156,-1.33,1.83,202.44,174.52,1.65,0.023,0.033,1.03,99246.3,27.66,0,0,0.0,0.0,0.0,0.0,0.96,-22.0
2025-11-09T20:03:23.349682,157,-1.33,1.83,202.43,174.49,-0.29,0.024,0.033,1.029,99246.64,27.69,0,0,0.0,0.0,0.0,0.0,0.96,-23.0
2025-11-09T20:03:23.448261,158,-1.33,1.83,202.42,174.72,2.28,0.021,0.032,1.029,99243.95,27.66,0,0,0.0,0.0,0.0,0.0,0.96,-22.0
2025-11-09T20:03:23.546973,159,-1.33,1.82,202.43,174.58,-1.38,0.023,0.032,1.03,99245.59,27.66,0,0,0.0,0.0,0.0,0.0,0.96,-22.0
2025-11-09T20:03:23.645597,160,-1.33,1.83,202.42,174.73,1.48,0.022,0.032,1.029,99243.84,27.73,0,0,0.0,0.0,0.0,0.0,0.96,-22.0
2025-11-09T20:03:23.747709,161,-1.33,1.83,202.41,174.64,-0.9,0.022,0.033,1.025,99244.9,27.61,0,0,0.0,0.0,0.0,0.0,0.96,-22.0
2025-11-09T20:03:23.849635,162,-1.33,1.82,202.41,174.63,-0.12,0.025,0.032,1.028,99245.04,27.65,0,0,0.0,0.0,0.0,0.0,0.96,-23.0
2025-11-09T20:03:23.947717,163,-1.33,1.82,202.39,174.72,0.92,0.023,0.034,1.03,99243.95,27.63,0,0,0.0,0.0,0.0,0.0,0.96,-22.0
2025-11-09T20:03:24.050072,164,-1.33,1.82,202.39,174.6,-1.2,0.025,0.032,1.031,99245.38,27.64,0,0,0.0,0.0,0.0,0.0,0.96,-23.0
2025-11-09T20:03:24.149141,165,-1.33,1.82,202.38,174.49,-1.15,0.024,0.034,1.03,99246.73,27.64,0,0,0.0,0.0,0.0,0.0,0.96,-23.0
2025-11-09T20:03:24.247738,166,-1.33,1.82,202.38,174.56,0.7,0.024,0.032,1.03,99245.9,27.66,0,0,0.0,0.0,0.0,0.0,0.96,-23.0
2025-11-09T20:03:24.345634,167,-1.33,1.82,202.37,174.59,0.31,0.024,0.034,1.029,99245.53,27.67,0,0,0.0,0.0,0.0,0.0,0.96,-22.0
2025-11-09T20:03:24.448019,168,-1.33,1.82,202.37,174.52,-0.71,0.024,0.033,1.03,99246.36,27.67,0,0,0.0,0.0,0.0,0.0,0.96,-23.0
2025-11-09T20:03:24.546328,169,-1.33,1.82,202.37,174.71,1.96,0.023,0.031,1.031,99244.05,27.68,0,0,0.0,0.0,0.0,0.0,0.96,-23.0
2025-11-09T20:03:24.648414,170,-1.33,1.82,202.36,174.51,-2.0,0.023,0.032,1.031,99246.41,27.69,0,0,0.0,0.0,0.0,0.0,0.96,-23.0
2025-11-09T20:03:24.746828,171,-1.33,1.82,202.36,174.6,0.84,0.023,0.03,1.027,99245.41,27.66,0,0,0.0,0.0,0.0,0.0,0.96,-22.0
2025-11-09T20:03:24.849351,172,-1.33,1.81,202.34,174.58,-0.17,0.023,0.03,1.03,99245.61,27.65,0,0,0.0,0.0,0.0,0.0,0.96,-22.0
2025-11-09T20:03:24.947603,173,-1.33,1.81,202.32,174.67,0.89,0.025,0.032,1.026,99244.55,27.67,0,0,0.0,0.0,0.0,0.0,0.96,-22.0
2025-11-09T20:03:25.049723,174,-1.33,1.81,202.29,174.62,-0.46,0.022,0.034,1.028,99245.09,27.66,0,0,0.0,0.0,0.0,0.0,0.96,-23.0
2025-11-09T20:03:25.148239,175,-1.33,1.81,202.27,174.74,1.17,0.023,0.034,1.029,99243.72,27.68,0,0,0.0,0.0,0.0,0.0,0.96,-23.0
2025-11-09T20:03:25.246718,176,-1.33,1.81,202.26,174.91,1.67,0.024,0.034,1.03,99241.75,27.63,0,0,0.0,0.0,0.0,0.0,0.96,-22.0
2025-11-09T20:03:25.349031,177,-1.32,1.8,202.23,174.82,-0.85,0.023,0.032,1.028,99242.75,27.64,0,0,0.0,0.0,0.0,0.0,0.96,-23.0
2025-11-09T20:03:25.447670,178,-1.32,1.8,202.22,174.47,-3.52,0.023,0.033,1.029,99246.91,27.67,0,0,0.0,0.0,0.0,0.0,0.96,-23.0
2025-11-09T20:03:25.549607,179,-1.33,1.8,202.22,174.46,-0.12,0.026,0.034,1.03,99247.05,27.64,0,0,0.0,0.0,0.0,0.0,0.96,-23.0
2025-11-09T20:03:25.647736,180,-1.33,1.8,202.22,174.68,2.22,0.023,0.032,1.03,99244.42,27.67,0,0,0.0,0.0,0.0,0.0,0.96,-22.0
2025-11-09T20:03:25.750232,181,-1.33,1.8,202.22,174.53,-1.54,0.024,0.033,1.027,99246.23,27.66,0,0,0.0,0.0,0.0,0.0,0.96,-24.0
2025-11-09T20:03:25.848407,182,-1.33,1.8,202.2,174.85,3.24,0.024,0.034,1.028,99242.41,27.62,0,0,0.0,0.0,0.0,0.0,0.96,-23.0
2025-11-09T20:03:25.950632,183,-1.33,1.8,202.19,174.55,-2.97,0.022,0.033,1.029,99245.92,27.66,0,0,0.0,0.0,0.0,0.0,0.96,-22.0
2025-11-09T20:03:26.049113,184,-1.33,1.8,202.19,174.64,0.87,0.024,0.032,1.03,99244.9,27.64,0,0,0.0,0.0,0.0,0.0,0.96,-23.0
2025-11-09T20:03:26.147863,185,-1.32,1.8,202.18,174.3,-3.37,0.023,0.035,1.031,99248.88,27.65,0,0,0.0,0.0,0.0,0.0,0.96,-23.0
2025-11-09T20:03:26.249470,186,-1.32,1.8,202.17,174.44,1.39,0.024,0.033,1.03,99247.24,27.66,0,0,0.0,0.0,0.0,0.0,0.96,-23.0
2025-11-09T20:03:26.348369,187,-1.33,1.8,202.17,174.46,0.21,0.023,0.032,1.03,99246.98,27.66,0,0,0.0,0.0,0.0,0.0,0.96,-23.0
2025-11-09T20:03:26.446949,188,-1.33,1.8,202.17,174.7,2.39,0.023,0.031,1.028,99244.16,27.7,0,0,0.0,0.0,0.0,0.0,0.96,-23.0
2025-11-09T20:03:26.549244,189,-1.33,1.8,202.16,174.55,-1.52,0.023,0.033,1.029,99245.95,27.7,0,0,0.0,0.0,0.0,0.0,0.96,-23.0
2025-11-09T20:03:26.647664,190,-1.33,1.8,202.15,174.74,1.89,0.024,0.033,1.029,99243.72,27.68,0,0,0.0,0.0,0.0,0.0,0.96,-22.0
2025-11-09T20:03:26.749614,191,-1.33,1.8,202.15,174.39,-3.53,0.024,0.03,1.026,99247.89,27.62,0,0,0.0,0.0,0.0,0.0,0.96,-23.0
2025-11-09T20:03:26.848246,192,-1.33,1.8,202.16,174.47,0.86,0.023,0.032,1.029,99246.87,27.62,0,0,0.0,0.0,0.0,0.0,0.96,-24.0
2025-11-09T20:03:26.950212,193,-1.33,1.8,202.15,174.52,0.43,0.022,0.033,1.03,99246.36,27.7,0,0,0.0,0.0,0.0,0.0,0.96,-23.0
2025-11-09T20:03:27.048974,194,-1.32,1.8,202.13,174.43,-0.81,0.024,0.033,1.029,99247.33,27.68,0,0,0.0,0.0,0.0,0.0,0.96,-23.0
2025-11-09T20:03:27.147394,195,-1.32,1.8,202.13,174.62,1.88,0.023,0.033,1.029,99245.1,27.7,0,0,0.0,0.0,0.0,0.0,0.96,-23.0
2025-11-09T20:03:27.347780,196,-1.32,1.8,202.11,174.54,0.87,0.024,0.033,1.031,99246.12,27.7,0,0,0.0,0.0,0.0,0.0,0.96,-22.0
2025-11-09T20:03:27.449975,197,-1.33,1.8,202.13,174.31,-2.28,0.025,0.032,1.031,99248.81,27.66,0,0,0.0,0.0,0.0,0.0,0.96,-23.0
2025-11-09T20:03:27.548316,198,-1.33,1.8,202.13,174.52,2.07,0.022,0.032,1.029,99246.36,27.67,0,0,0.0,0.0,0.0,0.0,0.96,-23.0
2025-11-09T20:03:27.650544,199,-1.33,1.8,202.14,174.36,-1.59,0.023,0.032,1.031,99248.24,27.65,0,0,0.0,0.0,0.0,0.0,0.96,-24.0
2025-11-09T20:03:27.748964,200,-1.33,1.81,202.16,174.44,0.87,0.021,0.033,1.028,99247.22,27.66,0,0,0.0,0.0,0.0,0.0,0.96,-24.0
2025-11-09T20:03:27.847531,201,-1.33,1.81,202.17,174.45,0.05,0.021,0.03,1.032,99247.16,27.65,0,0,0.0,0.0,0.0,0.0,0.96,-25.0
2025-11-09T20:03:27.949725,202,-1.33,1.81,202.18,174.31,-1.38,0.023,0.032,1.03,99248.78,27.64,0,0,0.0,0.0,0.0,0.0,0.96,-25.0
2025-11-09T20:03:28.048273,203,-1.33,1.81,202.18,174.34,0.31,0.023,0.032,1.029,99248.41,27.63,0,0,0.0,0.0,0.0,0.0,0.96,-24.0
2025-11-09T20:03:28.150412,204,-1.33,1.81,202.18,174.18,-1.68,0.024,0.035,1.029,99250.39,27.68,0,0,0.0,0.0,0.0,0.0,0.96,-25.0
2025-11-09T20:03:28.248873,205,-1.33,1.81,202.19,174.34,1.68,0.023,0.032,1.029,99248.41,27.69,0,0,0.0,0.0,0.0,0.0,0.96,-25.0
2025-11-09T20:03:28.350979,206,-1.33,1.81,202.2,174.26,-0.87,0.022,0.033,1.031,99249.45,27.71,0,0,0.0,0.0,0.0,0.0,0.96,-25.0
2025-11-09T20:03:28.449477,207,-1.33,1.81,202.19,174.29,0.34,0.022,0.033,1.028,99249.05,27.7,0,0,0.0,0.0,0.0,0.0,0.96,-25.0
2025-11-09T20:03:28.551729,208,-1.33,1.81,202.2,174.16,-1.3,0.022,0.032,1.029,99250.59,27.68,0,0,0.0,0.0,0.0,0.0,0.96,-25.0
2025-11-09T20:03:28.650019,209,-1.33,1.82,202.22,174.48,3.19,0.023,0.033,1.029,99246.81,27.68,0,0,0.0,0.0,0.0,0.0,0.96,-26.0
2025-11-09T20:03:28.752429,210,-1.33,1.82,202.23,174.42,-0.55,0.024,0.032,1.026,99247.47,27.64,0,0,0.0,0.0,0.0,0.0,0.96,-26.0
2025-11-09T20:03:28.853343,211,-1.33,1.82,202.23,174.48,0.55,0.023,0.034,1.028,99246.81,27.66,0,0,0.0,0.0,0.0,0.0,0.96,-26.0
2025-11-09T20:03:28.949136,212,-1.33,1.82,202.26,174.35,-1.3,0.022,0.033,1.028,99248.36,27.66,0,0,0.0,0.0,0.0,0.0,0.96,-26.0
2025-11-09T20:03:29.047591,213,-1.33,1.83,202.28,174.37,0.21,0.024,0.033,1.03,99248.1,27.62,0,0,0.0,0.0,0.0,0.0,0.96,-26.0
2025-11-09T20:03:29.149639,214,-1.33,1.83,202.27,174.39,0.18,0.024,0.034,1.028,99247.89,27.66,0,0,0.0,0.0,0.0,0.0,0.96,-26.0
2025-11-09T20:03:29.248421,215,-1.33,1.82,202.27,174.46,0.71,0.023,0.031,1.03,99247.05,27.64,0,0,0.0,0.0,0.0,0.0,0.96,-26.0
2025-11-09T20:03:29.350385,216,-1.33,1.82,202.27,174.37,-0.87,0.023,0.034,1.03,99248.07,27.65,0,0,0.0,0.0,0.0,0.0,0.96,-26.0
2025-11-09T20:03:29.449127,217,-1.33,1.82,202.26,174.46,0.85,0.025,0.034,1.027,99247.07,27.65,0,0,0.0,0.0,0.0,0.0,0.96,-26.0
2025-11-09T20:03:29.551297,218,-1.33,1.82,202.25,174.33,-1.28,0.024,0.034,1.031,99248.59,27.64,0,0,0.0,0.0,0.0,0.0,0.96,-26.0
2025-11-09T20:03:29.649553,219,-1.33,1.83,202.27,174.53,2.0,0.024,0.036,1.028,99246.22,27.67,0,0,0.0,0.0,0.0,0.0,0.96,-26.0
2025-11-09T20:03:29.751758,220,-1.34,1.83,202.28,174.46,-0.65,0.024,0.032,1.025,99246.98,27.62,0,0,0.0,0.0,0.0,0.0,0.96,-26.0
2025-11-09T20:03:29.850037,221,-1.34,1.83,202.27,174.56,0.97,0.023,0.034,1.028,99245.84,27.61,0,0,0.0,0.0,0.0,0.0,0.96,-26.0
2025-11-09T20:03:29.952474,222,-1.34,1.83,202.27,174.38,-1.84,0.024,0.032,1.028,99248.02,27.67,0,0,0.0,0.0,0.0,0.0,0.96,-27.0
2025-11-09T20:03:30.050776,223,-1.34,1.82,202.26,174.45,0.76,0.023,0.033,1.029,99247.12,27.63,0,0,0.0,0.0,0.0,0.0,0.96,-26.0
2025-11-09T20:03:30.149397,224,-1.33,1.82,202.25,174.57,1.16,0.023,0.034,1.03,99245.75,27.65,0,0,0.0,0.0,0.0,0.0,0.96,-26.0
2025-11-09T20:03:30.247967,225,-1.33,1.82,202.25,174.76,1.93,0.021,0.032,1.028,99243.47,27.6,0,0,0.0,0.0,0.0,0.0,0.96,-27.0
2025-11-09T20:03:30.350066,226,-1.33,1.82,202.25,174.51,-2.54,0.023,0.033,1.027,99246.47,27.67,0,0,0.0,0.0,0.0,0.0,0.96,-27.0
2025-11-09T20:03:30.448171,227,-1.33,1.83,202.28,174.56,0.53,0.025,0.035,1.021,99245.84,27.62,0,0,0.0,0.0,0.0,0.0,0.96,-27.0
2025-11-09T20:03:30.550346,228,-1.33,1.83,202.31,174.57,0.09,0.023,0.03,1.029,99245.73,27.66,0,0,0.0,0.0,0.0,0.0,0.96,-27.0
2025-11-09T20:03:30.648966,229,-1.33,1.83,202.32,174.6,0.27,0.022,0.031,1.029,99245.41,27.63,0,0,0.0,0.0,0.0,0.0,0.96,-27.0
2025-11-09T20:03:30.751204,230,-1.34,1.83,202.34,174.51,-0.89,0.025,0.034,1.028,99246.47,27.61,0,0,0.0,0.0,0.0,0.0,0.96,-28.0
2025-11-09T20:03:30.849711,231,-1.34,1.83,202.36,174.43,-0.82,0.026,0.032,1.026,99247.44,27.66,0,0,0.0,0.0,0.0,0.0,0.96,-28.0
2025-11-09T20:03:30.948067,232,-1.34,1.84,202.38,174.5,0.74,0.024,0.029,1.028,99246.56,27.62,0,0,0.0,0.0,0.0,0.0,0.96,-31.0
2025-11-09T20:03:31.050186,233,-1.34,1.84,202.39,174.52,0.17,0.023,0.034,1.028,99246.36,27.63,0,0,0.0,0.0,0.0,0.0,0.96,-27.0
2025-11-09T20:03:31.149107,234,-1.34,1.84,202.41,174.84,3.25,0.022,0.033,1.029,99242.53,27.65,0,0,0.0,0.0,0.0,0.0,0.96,-27.0
2025-11-09T20:03:31.251136,235,-1.34,1.84,202.42,174.68,-1.65,0.025,0.032,1.027,99244.47,27.66,0,0,0.0,0.0,0.0,0.0,0.96,-28.0
2025-11-09T20:03:31.349902,236,-1.34,1.84,202.43,174.58,-1.0,0.024,0.031,1.028,99245.65,27.66,0,0,0.0,0.0,0.0,0.0,0.96,-28.0
2025-11-09T20:03:31.451595,237,-1.34,1.84,202.44,174.62,0.39,0.024,0.032,1.027,99245.19,27.67,0,0,0.0,0.0,0.0,0.0,0.96,-27.0
2025-11-09T20:03:31.549717,238,-1.34,1.84,202.43,174.83,2.19,0.025,0.034,1.028,99242.61,27.61,0,0,0.0,0.0,0.0,0.0,0.96,-28.0
2025-11-09T20:03:31.652360,239,-1.34,1.84,202.44,174.73,-1.04,0.023,0.03,1.027,99243.84,27.66,0,0,0.0,0.0,0.0,0.0,0.96,-28.0
2025-11-09T20:03:31.751201,240,-1.34,1.85,202.46,174.62,-1.15,0.024,0.031,1.025,99245.19,27.57,0,0,0.0,0.0,0.0,0.0,0.96,-28.0
2025-11-09T20:03:31.849328,241,-1.34,1.85,202.48,174.9,2.86,0.024,0.034,1.027,99241.81,27.62,0,0,0.0,0.0,0.0,0.0,0.96,-28.0
2025-11-09T20:03:31.951190,242,-1.34,1.85,202.47,174.7,-1.98,0.024,0.033,1.028,99244.16,27.61,0,0,0.0,0.0,0.0,0.0,0.96,-28.0
2025-11-09T20:03:32.049545,243,-1.35,1.85,202.48,174.71,0.05,0.025,0.032,1.03,99244.1,27.66,0,0,0.0,0.0,0.0,0.0,0.96,-28.0
2025-11-09T20:03:32.151883,244,-1.35,1.85,202.49,174.53,-1.81,0.023,0.032,1.03,99246.24,27.63,0,0,0.0,0.0,0.0,0.0,0.96,-28.0
2025-11-09T20:03:32.250246,245,-1.35,1.85,202.51,174.82,2.89,0.023,0.032,1.029,99242.82,27.64,0,0,0.0,0.0,0.0,0.0,0.96,-27.0
2025-11-09T20:03:32.352495,246,-1.35,1.85,202.52,174.57,-2.44,0.022,0.031,1.028,99245.7,27.65,0,0,0.0,0.0,0.0,0.0,0.96,-28.0
2025-11-09T20:03:32.450919,247,-1.35,1.85,202.54,174.88,3.07,0.022,0.033,1.029,99242.08,27.72,0,0,0.0,0.0,0.0,0.0,0.96,-28.0
2025-11-09T20:03:32.549782,248,-1.35,1.85,202.54,174.54,-3.39,0.022,0.034,1.031,99246.08,27.67,0,0,0.0,0.0,0.0,0.0,0.96,-27.0
2025-11-09T20:03:32.651697,249,-1.34,1.85,202.54,174.64,1.02,0.022,0.032,1.029,99244.88,27.64,0,0,0.0,0.0,0.0,0.0,0.96,-27.0
2025-11-09T20:03:32.750116,250,-1.34,1.85,202.55,174.41,-2.37,0.022,0.032,1.024,99247.67,27.55,0,0,0.0,0.0,0.0,0.0,0.96,-28.0
2025-11-09T20:03:32.848806,251,-1.34,1.85,202.54,174.75,3.46,0.022,0.033,1.027,99243.59,27.62,0,0,0.0,0.0,0.0,0.0,0.96,-27.0
2025-11-09T20:03:32.951090,252,-1.34,1.84,202.54,174.67,-0.8,0.022,0.033,1.028,99244.53,27.62,0,0,0.0,0.0,0.0,0.0,0.96,-27.0
2025-11-09T20:03:33.049455,253,-1.34,1.84,202.52,175.13,4.56,0.023,0.033,1.029,99239.16,27.64,0,0,0.0,0.0,0.0,0.0,0.96,-28.0
2025-11-09T20:03:33.151511,254,-1.34,1.84,202.51,174.78,-3.51,0.024,0.034,1.028,99243.3,27.64,0,0,0.0,0.0,0.0,0.0,0.96,-28.0
2025-11-09T20:03:33.249973,255,-1.34,1.84,202.53,174.77,-0.03,0.023,0.035,1.029,99243.33,27.65,0,0,0.0,0.0,0.0,0.0,0.96,-28.0
2025-11-09T20:03:33.351698,256,-1.34,1.84,202.52,174.85,0.8,0.022,0.031,1.028,99242.39,27.66,0,0,0.0,0.0,0.0,0.0,0.96,-28.0
2025-11-09T20:03:33.450601,257,-1.34,1.84,202.53,174.76,-0.92,0.023,0.033,1.029,99243.47,27.67,0,0,0.0,0.0,0.0,0.0,0.96,-27.0
2025-11-09T20:03:33.548829,258,-1.34,1.84,202.52,174.85,0.92,0.022,0.032,1.029,99242.39,27.7,0,0,0.0,0.0,0.0,0.0,0.96,-28.0
2025-11-09T20:03:33.651226,259,-1.34,1.84,202.52,174.85,-0.07,0.022,0.032,1.028,99242.47,27.66,0,0,0.0,0.0,0.0,0.0,0.96,-29.0
2025-11-09T20:03:33.753110,260,-1.34,1.84,202.51,174.71,-1.34,0.022,0.033,1.025,99244.05,27.59,0,0,0.0,0.0,0.0,0.0,0.96,-28.0
2025-11-09T20:03:33.851636,261,-1.33,1.83,202.49,174.57,-1.38,0.024,0.033,1.027,99245.67,27.55,0,0,0.0,0.0,0.0,0.0,0.96,-28.0
2025-11-09T20:03:33.950569,262,-1.33,1.83,202.47,174.71,1.4,0.023,0.032,1.027,99244.02,27.65,0,0,0.0,0.0,0.0,0.0,0.96,-28.0
2025-11-09T20:03:34.054470,263,-1.33,1.83,202.49,174.53,-1.84,0.023,0.034,1.028,99246.19,27.62,0,0,0.0,0.0,0.0,0.0,0.96,-28.0
2025-11-09T20:03:34.151168,264,-1.33,1.83,202.47,174.8,2.71,0.023,0.032,1.029,99242.98,27.62,0,0,0.0,0.0,0.0,0.0,0.96,-28.0
2025-11-09T20:03:34.253275,265,-1.33,1.83,202.48,174.58,-2.22,0.022,0.033,1.029,99245.61,27.65,0,0,0.0,0.0,0.0,0.0,0.96,-29.0
2025-11-09T20:03:34.351356,266,-1.33,1.83,202.47,175.01,4.3,0.023,0.033,1.027,99240.53,27.6,0,0,0.0,0.0,0.0,0.0,0.96,-28.0
2025-11-09T20:03:34.453691,267,-1.33,1.83,202.46,174.74,-2.7,0.024,0.034,1.028,99243.73,27.66,0,0,0.0,0.0,0.0,0.0,0.96,-28.0
2025-11-09T20:03:34.551893,268,-1.33,1.82,202.44,175.0,2.56,0.024,0.034,1.029,99240.7,27.64,0,0,0.0,0.0,0.0,0.0,0.96,-28.0
2025-11-09T20:03:34.650802,269,-1.33,1.82,202.43,174.8,-1.9,0.023,0.033,1.029,99242.95,27.67,0,0,0.0,0.0,0.0,0.0,0.96,-29.0
2025-11-09T20:03:34.749080,270,-1.33,1.82,202.42,174.86,0.55,0.023,0.033,1.025,99242.3,27.57,0,0,0.0,0.0,0.0,0.0,0.96,-28.0
2025-11-09T20:03:34.851565,271,-1.33,1.82,202.41,174.76,-0.99,0.024,0.033,1.027,99243.47,27.58,0,0,0.0,0.0,0.0,0.0,0.96,-28.0
2025-11-09T20:03:34.953928,272,-1.33,1.82,202.39,174.53,-2.28,0.025,0.033,1.029,99246.16,27.59,0,0,0.0,0.0,0.0,0.0,0.96,-29.0
2025-11-09T20:03:35.051488,273,-1.33,1.82,202.38,174.68,1.46,0.023,0.033,1.027,99244.45,27.62,0,0,0.0,0.0,0.0,0.0,0.96,-28.0
2025-11-09T20:03:35.150443,274,-1.33,1.82,202.37,174.65,-0.25,0.024,0.032,1.028,99244.73,27.64,0,0,0.0,0.0,0.0,0.0,0.96,-28.0
2025-11-09T20:03:35.252242,275,-1.33,1.81,202.35,174.74,0.87,0.023,0.035,1.028,99243.7,27.6,0,0,0.0,0.0,0.0,0.0,0.96,-28.0
2025-11-09T20:03:35.351252,276,-1.33,1.81,202.35,174.67,-0.68,0.023,0.033,1.029,99244.5,27.57,0,0,0.0,0.0,0.0,0.0,0.96,-28.0
2025-11-09T20:03:35.449329,277,-1.33,1.81,202.34,174.79,1.11,0.024,0.033,1.027,99243.19,27.61,0,0,0.0,0.0,0.0,0.0,0.96,-28.0
2025-11-09T20:03:35.551623,278,-1.33,1.81,202.33,174.63,-1.54,0.022,0.032,1.029,99245.02,27.59,0,0,0.0,0.0,0.0,0.0,0.96,-28.0
2025-11-09T20:03:35.650111,279,-1.33,1.81,202.32,174.83,1.98,0.022,0.032,1.029,99242.67,27.67,0,0,0.0,0.0,0.0,0.0,0.96,-28.0
2025-11-09T20:03:35.752482,280,-1.33,1.81,202.31,174.82,-0.08,0.022,0.032,1.024,99242.76,27.61,0,0,0.0,0.0,0.0,0.0,0.96,-28.0
2025-11-09T20:03:35.850894,281,-1.33,1.81,202.3,174.85,0.31,0.024,0.032,1.026,99242.39,27.56,0,0,0.0,0.0,0.0,0.0,0.96,-28.0
2025-11-09T20:03:35.953109,282,-1.33,1.8,202.28,174.57,-2.81,0.024,0.032,1.028,99245.7,27.64,0,0,0.0,0.0,0.0,0.0,0.96,-28.0
2025-11-09T20:03:36.051428,283,-1.32,1.8,202.28,174.87,3.0,0.024,0.032,1.028,99242.16,27.61,0,0,0.0,0.0,0.0,0.0,0.96,-28.0
2025-11-09T20:03:36.153612,284,-1.32,1.8,202.26,174.69,-1.86,0.023,0.033,1.028,99244.36,27.61,0,0,0.0,0.0,0.0,0.0,0.96,-28.0
2025-11-09T20:03:36.252280,285,-1.32,1.8,202.24,174.61,-0.73,0.023,0.032,1.028,99245.22,27.62,0,0,0.0,0.0,0.0,0.0,0.96,-28.0
2025-11-09T20:03:36.350527,286,-1.32,1.8,202.22,174.82,2.1,0.023,0.032,1.027,99242.73,27.63,0,0,0.0,0.0,0.0,0.0,0.96,-28.0
2025-11-09T20:03:36.452779,287,-1.32,1.8,202.2,174.69,-1.37,0.022,0.033,1.028,99244.36,27.64,0,0,0.0,0.0,0.0,0.0,0.96,-28.0
2025-11-09T20:03:36.551329,288,-1.32,1.8,202.19,174.67,-0.15,0.024,0.034,1.028,99244.53,27.57,0,0,0.0,0.0,0.0,0.0,0.96,-28.0
2025-11-09T20:03:36.653196,289,-1.32,1.8,202.18,174.45,-2.18,0.024,0.032,1.029,99247.11,27.64,0,0,0.0,0.0,0.0,0.0,0.96,-28.0
2025-11-09T20:03:36.751593,290,-1.32,1.8,202.17,174.73,2.8,0.023,0.033,1.025,99243.8,27.59,0,0,0.0,0.0,0.0,0.0,0.96,-28.0
2025-11-09T20:03:36.853861,291,-1.32,1.8,202.16,174.57,-1.66,0.024,0.032,1.026,99245.76,27.61,0,0,0.0,0.0,0.0,0.0,0.96,-28.0
2025-11-09T20:03:36.952238,292,-1.32,1.8,202.18,174.72,1.54,0.023,0.032,1.027,99243.94,27.55,0,0,0.0,0.0,0.0,0.0,0.96,-28.0
2025-11-09T20:03:37.054350,293,-1.32,1.8,202.18,174.71,-0.09,0.024,0.032,1.028,99244.05,27.59,0,0,0.0,0.0,0.0,0.0,0.96,-28.0
2025-11-09T20:03:37.152935,294,-1.32,1.8,202.16,174.8,0.87,0.022,0.034,1.027,99243.02,27.61,0,0,0.0,0.0,0.0,0.0,0.96,-28.0
2025-11-09T20:03:37.251778,295,-1.32,1.8,202.16,174.74,-0.57,0.024,0.033,1.028,99243.7,27.59,0,0,0.0,0.0,0.0,0.0,0.96,-28.0
2025-11-09T20:03:37.350011,296,-1.32,1.8,202.16,174.98,2.42,0.024,0.032,1.028,99240.84,27.62,0,0,0.0,0.0,0.0,0.0,0.96,-28.0
2025-11-09T20:03:37.452447,297,-1.32,1.8,202.17,174.53,-4.55,0.025,0.034,1.029,99246.22,27.61,0,0,0.0,0.0,0.0,0.0,0.96,-28.0
2025-11-09T20:03:37.550790,298,-1.32,1.8,202.17,174.91,3.87,0.024,0.032,1.028,99241.65,27.61,0,0,0.0,0.0,0.0,0.0,0.96,-28.0
2025-11-09T20:03:37.653000,299,-1.32,1.81,202.18,174.66,-2.51,0.023,0.034,1.029,99244.62,27.64,0,0,0.0,0.0,0.0,0.0,0.96,-28.0
2025-11-09T20:03:37.751435,300,-1.32,1.8,202.15,174.84,1.79,0.023,0.032,1.024,99242.51,27.57,0,0,0.0,0.0,0.0,0.0,0.96,-28.0
2025-11-09T20:03:37.853566,301,-1.32,1.8,202.15,174.31,-5.35,0.022,0.032,1.025,99248.82,27.57,0,0,0.0,0.0,0.0,0.0,0.96,-28.0
2025-11-09T20:03:37.951910,302,-1.32,1.8,202.12,174.45,1.38,0.023,0.035,1.027,99247.2,27.58,0,0,0.0,0.0,0.0,0.0,0.96,-28.0
2025-11-09T20:03:38.054142,303,-1.32,1.8,202.12,174.4,-0.43,0.024,0.032,1.027,99247.7,27.63,0,0,0.0,0.0,0.0,0.0,0.96,-28.0
2025-11-09T20:03:38.152286,304,-1.32,1.8,202.12,174.65,2.44,0.023,0.032,1.028,99244.82,27.61,0,0,0.0,0.0,0.0,0.0,0.96,-28.0
2025-11-09T20:03:38.254541,305,-1.32,1.8,202.12,174.45,-1.94,0.023,0.033,1.029,99247.11,27.62,0,0,0.0,0.0,0.0,0.0,0.96,-28.0
2025-11-09T20:03:38.352868,306,-1.32,1.8,202.14,174.53,0.78,0.022,0.032,1.03,99246.19,27.61,0,0,0.0,0.0,0.0,0.0,0.96,-28.0
2025-11-09T20:03:38.451674,307,-1.33,1.81,202.16,174.52,-0.08,0.023,0.032,1.028,99246.28,27.61,0,0,0.0,0.0,0.0,0.0,0.96,-27.0
2025-11-09T20:03:38.553414,308,-1.33,1.81,202.16,174.56,0.39,0.024,0.032,1.028,99245.82,27.62,0,0,0.0,0.0,0.0,0.0,0.96,-28.0
2025-11-09T20:03:38.652549,309,-1.33,1.81,202.16,174.52,-0.44,0.023,0.032,1.029,99246.34,27.64,0,0,0.0,0.0,0.0,0.0,0.96,-27.0
2025-11-09T20:03:38.754533,310,-1.33,1.81,202.19,174.41,-1.06,0.024,0.033,1.025,99247.59,27.55,0,0,0.0,0.0,0.0,0.0,0.96,-27.0
2025-11-09T20:03:38.852918,311,-1.33,1.81,202.21,174.48,0.68,0.023,0.032,1.027,99246.8,27.57,0,0,0.0,0.0,0.0,0.0,0.96,-28.0
2025-11-09T20:03:38.955161,312,-1.33,1.81,202.21,174.38,-0.97,0.025,0.032,1.026,99247.94,27.61,0,0,0.0,0.0,0.0,0.0,0.96,-28.0
2025-11-09T20:03:39.053467,313,-1.33,1.82,202.22,174.45,0.68,0.023,0.032,1.029,99247.14,27.65,0,0,0.0,0.0,0.0,0.0,0.96,-28.0
2025-11-09T20:03:39.152398,314,-1.33,1.81,202.19,174.34,-1.13,0.023,0.034,1.026,99248.48,27.6,0,0,0.0,0.0,0.0,0.0,0.96,-28.0
2025-11-09T20:03:39.254093,315,-1.33,1.81,202.18,174.76,4.18,0.023,0.034,1.029,99243.53,27.62,0,0,0.0,0.0,0.0,0.0,0.96,-27.0
2025-11-09T20:03:39.352943,316,-1.33,1.81,202.18,174.53,-2.28,0.023,0.034,1.028,99246.22,27.64,0,0,0.0,0.0,0.0,0.0,0.96,-28.0
2025-11-09T20:03:39.451336,317,-1.33,1.81,202.18,174.63,1.01,0.024,0.032,1.029,99245.02,27.61,0,0,0.0,0.0,0.0,0.0,0.96,-28.0
2025-11-09T20:03:39.553556,318,-1.33,1.81,202.19,174.46,-1.69,0.023,0.033,1.028,99247.02,27.62,0,0,0.0,0.0,0.0,0.0,0.96,-28.0
2025-11-09T20:03:39.651609,319,-1.33,1.81,202.19,174.82,3.57,0.024,0.033,1.03,99242.8,27.66,0,0,0.0,0.0,0.0,0.0,0.96,-27.0
2025-11-09T20:03:39.753864,320,-1.33,1.82,202.2,174.58,-2.34,0.022,0.032,1.024,99245.56,27.59,0,0,0.0,0.0,0.0,0.0,0.96,-28.0
2025-11-09T20:03:39.852265,321,-1.33,1.82,202.19,174.65,0.64,0.023,0.033,1.026,99244.8,27.58,0,0,0.0,0.0,0.0,0.0,0.96,-28.0
2025-11-09T20:03:39.954489,322,-1.33,1.82,202.18,174.36,-2.92,0.024,0.033,1.027,99248.25,27.58,0,0,0.0,0.0,0.0,0.0,0.96,-29.0
2025-11-09T20:03:40.052830,323,-1.33,1.81,202.16,174.63,2.71,0.023,0.033,1.029,99245.05,27.6,0,0,0.0,0.0,0.0,0.0,0.96,-28.0
2025-11-09T20:03:40.155360,324,-1.33,1.81,202.16,174.49,-1.4,0.024,0.033,1.028,99246.7,27.63,0,0,0.0,0.0,0.0,0.0,0.96,-28.0
2025-11-09T20:03:40.253698,325,-1.33,1.82,202.16,174.68,1.88,0.023,0.032,1.028,99244.48,27.62,0,0,0.0,0.0,0.0,0.0,0.96,-27.0
2025-11-09T20:03:40.355564,326,-1.33,1.82,202.17,174.62,-0.56,0.023,0.033,1.027,99245.14,27.64,0,0,0.0,0.0,0.0,0.0,0.96,-28.0
2025-11-09T20:03:40.454321,327,-1.33,1.82,202.18,174.79,1.7,0.023,0.032,1.028,99243.13,27.68,0,0,0.0,0.0,0.0,0.0,0.96,-28.0
2025-11-09T20:03:40.552801,328,-1.33,1.82,202.2,174.81,0.19,0.022,0.032,1.029,99242.91,27.64,0,0,0.0,0.0,0.0,0.0,0.96,-27.0
2025-11-09T20:03:40.655101,329,-1.33,1.82,202.2,174.64,-1.64,0.023,0.034,1.029,99244.84,27.58,0,0,0.0,0.0,0.0,0.0,0.96,-28.0
2025-11-09T20:03:40.753430,330,-1.33,1.82,202.19,174.87,2.27,0.022,0.033,1.025,99242.16,27.55,0,0,0.0,0.0,0.0,0.0,0.96,-27.0
2025-11-09T20:03:40.855675,331,-1.33,1.82,202.19,174.59,-2.78,0.024,0.031,1.026,99245.45,27.55,0,0,0.0,0.0,0.0,0.0,0.96,-28.0
2025-11-09T20:03:40.953927,332,-1.33,1.82,202.19,174.68,0.84,0.024,0.031,1.028,99244.45,27.61,0,0,0.0,0.0,0.0,0.0,0.96,-27.0
2025-11-09T20:03:41.052893,333,-1.33,1.82,202.18,174.48,-2.0,0.022,0.032,1.026,99246.81,27.62,0,0,0.0,0.0,0.0,0.0,0.96,-27.0
2025-11-09T20:03:41.154342,334,-1.33,1.82,202.2,174.68,2.06,0.021,0.031,1.03,99244.39,27.62,0,0,0.0,0.0,0.0,0.0,0.96,-27.0
2025-11-09T20:03:41.253263,335,-1.33,1.82,202.2,174.65,-0.36,0.022,0.033,1.027,99244.82,27.59,0,0,0.0,0.0,0.0,0.0,0.96,-28.0
2025-11-09T20:03:41.351445,336,-1.33,1.82,202.21,174.74,0.95,0.022,0.034,1.03,99243.7,27.65,0,0,0.0,0.0,0.0,0.0,0.96,-28.0
2025-11-09T20:03:41.453835,337,-1.33,1.83,202.23,174.57,-1.74,0.023,0.032,1.029,99245.76,27.63,0,0,0.0,0.0,0.0,0.0,0.96,-27.0
2025-11-09T20:03:41.552159,338,-1.33,1.83,202.23,174.76,1.95,0.022,0.032,1.028,99243.45,27.63,0,0,0.0,0.0,0.0,0.0,0.96,-28.0
2025-11-09T20:03:41.654598,339,-1.33,1.83,202.26,174.57,-1.89,0.023,0.034,1.028,99245.68,27.64,0,0,0.0,0.0,0.0,0.0,0.96,-26.0
2025-11-09T20:03:41.753307,340,-1.33,1.83,202.26,174.54,-0.33,0.023,0.031,1.024,99246.08,27.57,0,0,0.0,0.0,0.0,0.0,0.96,-26.0
2025-11-09T20:03:41.855076,341,-1.33,1.83,202.29,174.47,-0.66,0.024,0.032,1.027,99246.85,27.62,0,0,0.0,0.0,0.0,0.0,0.96,-25.0
2025-11-09T20:03:41.953615,342,-1.34,1.83,202.3,174.55,0.73,0.024,0.032,1.029,99245.99,27.61,0,0,0.0,0.0,0.0,0.0,0.96,-24.0
2025-11-09T20:03:42.052135,343,-1.34,1.83,202.32,174.65,1.01,0.024,0.032,1.027,99244.8,27.57,0,0,0.0,0.0,0.0,0.0,0.96,-24.0
2025-11-09T20:03:42.154445,344,-1.34,1.84,202.34,174.45,-1.97,0.023,0.034,1.027,99247.13,27.6,0,0,0.0,0.0,0.0,0.0,0.96,-24.0
2025-11-09T20:03:42.252785,345,-1.34,1.84,202.36,174.7,2.46,0.022,0.033,1.028,99244.22,27.61,0,0,0.0,0.0,0.0,0.0,0.96,-24.0
2025-11-09T20:03:42.355000,346,-1.34,1.84,202.35,174.38,-3.15,0.023,0.032,1.028,99247.94,27.62,0,0,0.0,0.0,0.0,0.0,0.96,-24.0
2025-11-09T20:03:42.453348,347,-1.34,1.83,202.33,174.68,2.96,0.023,0.034,1.028,99244.45,27.61,0,0,0.0,0.0,0.0,0.0,0.96,-24.0
2025-11-09T20:03:42.555582,348,-1.34,1.84,202.33,174.46,-2.17,0.025,0.033,1.028,99247.02,27.66,0,0,0.0,0.0,0.0,0.0,0.96,-25.0
2025-11-09T20:03:42.653711,349,-1.34,1.84,202.35,174.63,1.73,0.024,0.032,1.028,99244.97,27.64,0,0,0.0,0.0,0.0,0.0,0.96,-24.0
2025-11-09T20:03:42.755963,350,-1.34,1.84,202.36,174.4,-2.32,0.023,0.033,1.025,99247.7,27.58,0,0,0.0,0.0,0.0,0.0,0.96,-25.0
2025-11-09T20:03:42.854263,351,-1.34,1.84,202.38,174.72,3.19,0.023,0.031,1.028,99243.94,27.58,0,0,0.0,0.0,0.0,0.0,0.96,-24.0
2025-11-09T20:03:42.956607,352,-1.34,1.84,202.39,174.42,-3.04,0.024,0.031,1.027,99247.53,27.59,0,0,0.0,0.0,0.0,0.0,0.96,-25.0
2025-11-09T20:03:43.055156,353,-1.34,1.84,202.41,174.44,0.27,0.024,0.031,1.027,99247.22,27.65,0,0,0.0,0.0,0.0,0.0,0.96,-26.0
2025-11-09T20:03:43.153728,354,-1.34,1.84,202.4,174.54,0.99,0.023,0.032,1.029,99246.05,27.65,0,0,0.0,0.0,0.0,0.0,0.96,-25.0
2025-11-09T20:03:43.252315,355,-1.34,1.84,202.41,174.71,1.64,0.023,0.033,1.028,99244.1,27.66,0,0,0.0,0.0,0.0,0.0,0.96,-27.0
2025-11-09T20:03:43.354550,356,-1.34,1.84,202.42,174.48,-2.25,0.023,0.032,1.028,99246.76,27.61,0,0,0.0,0.0,0.0,0.0,0.96,-27.0
2025-11-09T20:03:43.452766,357,-1.34,1.84,202.42,174.6,1.19,0.024,0.031,1.028,99245.36,27.61,0,0,0.0,0.0,0.0,0.0,0.96,-27.0
2025-11-09T20:03:43.554910,358,-1.34,1.85,202.43,174.62,0.14,0.023,0.035,1.026,99245.19,27.64,0,0,0.0,0.0,0.0,0.0,0.96,-27.0
2025-11-09T20:03:43.657155,359,-1.34,1.84,202.44,174.43,-1.81,0.024,0.032,1.028,99247.33,27.62,0,0,0.0,0.0,0.0,0.0,0.96,-28.0
2025-11-09T20:03:43.755411,360,-1.34,1.84,202.45,174.54,1.06,0.023,0.03,1.024,99246.08,27.62,0,0,0.0,0.0,0.0,0.0,0.96,-27.0
2025-11-09T20:03:43.854280,361,-1.34,1.84,202.46,174.5,-0.36,0.023,0.032,1.028,99246.5,27.62,0,0,0.0,0.0,0.0,0.0,0.96,-27.0
2025-11-09T20:03:43.952583,362,-1.34,1.85,202.47,174.71,2.08,0.023,0.033,1.027,99244.05,27.57,0,0,0.0,0.0,0.0,0.0,0.96,-28.0
2025-11-09T20:03:44.054650,363,-1.34,1.85,202.5,174.71,-0.05,0.023,0.031,1.028,99244.1,27.59,0,0,0.0,0.0,0.0,0.0,0.96,-28.0
2025-11-09T20:03:44.153075,364,-1.34,1.85,202.5,174.84,1.31,0.023,0.032,1.028,99242.56,27.62,0,0,0.0,0.0,0.0,0.0,0.96,-28.0
2025-11-09T20:03:44.255326,365,-1.34,1.85,202.5,174.71,-1.28,0.023,0.033,1.028,99244.07,27.62,0,0,0.0,0.0,0.0,0.0,0.96,-27.0
2025-11-09T20:03:44.353612,366,-1.34,1.85,202.5,174.88,1.71,0.024,0.033,1.029,99242.05,27.6,0,0,0.0,0.0,0.0,0.0,0.96,-27.0
2025-11-09T20:03:44.455822,367,-1.34,1.85,202.5,174.7,-1.82,0.023,0.034,1.029,99244.19,27.62,0,0,0.0,0.0,0.0,0.0,0.96,-28.0
2025-11-09T20:03:44.554447,368,-1.34,1.84,202.49,174.72,0.19,0.022,0.032,1.027,99243.96,27.63,0,0,0.0,0.0,0.0,0.0,0.96,-28.0
2025-11-09T20:03:44.656718,369,-1.34,1.84,202.5,174.67,-0.48,0.023,0.032,1.03,99244.53,27.67,0,0,0.0,0.0,0.0,0.0,0.96,-29.0
2025-11-09T20:03:44.755072,370,-1.34,1.84,202.49,174.76,0.92,0.024,0.033,1.024,99243.45,27.57,0,0,0.0,0.0,0.0,0.0,0.96,-28.0
2025-11-09T20:03:44.853642,371,-1.34,1.84,202.47,174.83,0.68,0.023,0.03,1.027,99242.65,27.58,0,0,0.0,0.0,0.0,0.0,0.96,-29.0
2025-11-09T20:03:44.955830,372,-1.34,1.84,202.48,174.73,-1.03,0.021,0.031,1.028,99243.88,27.6,0,0,0.0,0.0,0.0,0.0,0.96,-29.0
2025-11-09T20:03:45.054271,373,-1.34,1.84,202.49,174.83,1.02,0.023,0.032,1.028,99242.67,27.59,0,0,0.0,0.0,0.0,0.0,0.96,-29.0
2025-11-09T20:03:45.156429,374,-1.34,1.84,202.48,174.81,-0.15,0.023,0.032,1.029,99242.84,27.61,0,0,0.0,0.0,0.0,0.0,0.96,-29.0
2025-11-09T20:03:45.254882,375,-1.34,1.83,202.45,174.95,1.38,0.02,0.031,1.031,99241.22,27.62,0,0,0.0,0.0,0.0,0.0,0.96,-28.0
2025-11-09T20:03:45.356992,376,-1.33,1.83,202.43,174.66,-2.88,0.022,0.031,1.028,99244.62,27.61,0,0,0.0,0.0,0.0,0.0,0.96,-29.0
2025-11-09T20:03:45.455203,377,-1.33,1.83,202.42,174.78,1.14,0.025,0.032,1.028,99243.28,27.62,0,0,0.0,0.0,0.0,0.0,0.96,-28.0
2025-11-09T20:03:45.557323,378,-1.33,1.83,202.42,174.65,-1.28,0.023,0.033,1.028,99244.79,27.58,0,0,0.0,0.0,0.0,0.0,0.96,-28.0
2025-11-09T20:03:45.655772,379,-1.33,1.83,202.43,174.79,1.38,0.023,0.032,1.03,99243.16,27.66,0,0,0.0,0.0,0.0,0.0,0.96,-28.0
2025-11-09T20:03:45.754626,380,-1.33,1.83,202.42,174.68,-1.06,0.024,0.03,1.024,99244.42,27.61,0,0,0.0,0.0,0.0,0.0,0.96,-29.0
2025-11-09T20:03:45.852921,381,-1.33,1.83,202.41,174.89,2.13,0.024,0.033,1.029,99241.91,27.62,0,0,0.0,0.0,0.0,0.0,0.96,-28.0
2025-11-09T20:03:45.955245,382,-1.33,1.83,202.41,174.58,-3.14,0.026,0.033,1.029,99245.61,27.63,0,0,0.0,0.0,0.0,0.0,0.96,-28.0
2025-11-09T20:03:46.053744,383,-1.33,1.83,202.41,174.79,2.08,0.022,0.035,1.029,99243.16,27.62,0,0,0.0,0.0,0.0,0.0,0.96,-28.0
2025-11-09T20:03:46.155703,384,-1.33,1.83,202.41,174.66,-1.28,0.022,0.031,1.029,99244.67,27.6,0,0,0.0,0.0,0.0,0.0,0.96,-28.0
2025-11-09T20:03:46.254303,385,-1.33,1.83,202.42,174.97,3.07,0.025,0.033,1.029,99241.05,27.62,0,0,0.0,0.0,0.0,0.0,0.96,-28.0
2025-11-09T20:03:46.356603,386,-1.33,1.83,202.42,174.87,-0.92,0.024,0.034,1.028,99242.13,27.63,0,0,0.0,0.0,0.0,0.0,0.96,-28.0
2025-11-09T20:03:46.454979,387,-1.33,1.83,202.41,175.0,1.23,0.022,0.032,1.028,99240.67,27.62,0,0,0.0,0.0,0.0,0.0,0.96,-29.0
2025-11-09T20:03:46.557218,388,-1.33,1.82,202.39,174.78,-2.2,0.024,0.033,1.029,99243.28,27.63,0,0,0.0,0.0,0.0,0.0,0.96,-28.0
2025-11-09T20:03:46.655500,389,-1.33,1.82,202.37,174.97,1.91,0.024,0.032,1.028,99241.02,27.65,0,0,0.0,0.0,0.0,0.0,0.96,-28.0
2025-11-09T20:03:46.754096,390,-1.33,1.82,202.38,175.02,0.48,0.022,0.031,1.024,99240.45,27.58,0,0,0.0,0.0,0.0,0.0,0.96,-28.0
2025-11-09T20:03:46.856305,391,-1.33,1.82,202.39,174.82,-1.94,0.024,0.031,1.027,99242.73,27.59,0,0,0.0,0.0,0.0,0.0,0.96,-28.0
2025-11-09T20:03:46.954432,392,-1.33,1.82,202.38,175.04,2.16,0.023,0.033,1.026,99240.19,27.6,0,0,0.0,0.0,0.0,0.0,0.96,-28.0
2025-11-09T20:03:47.056705,393,-1.33,1.83,202.39,174.93,-1.09,0.023,0.034,1.029,99241.48,27.61,0,0,0.0,0.0,0.0,0.0,0.96,-28.0
2025-11-09T20:03:47.155151,394,-1.33,1.82,202.37,175.12,1.89,0.024,0.033,1.027,99239.25,27.63,0,0,0.0,0.0,0.0,0.0,0.96,-28.0
2025-11-09T20:03:47.257268,395,-1.33,1.82,202.37,174.87,-2.52,0.023,0.032,1.027,99242.22,27.66,0,0,0.0,0.0,0.0,0.0,0.96,-28.0
2025-11-09T20:03:47.355674,396,-1.33,1.83,202.39,174.94,0.77,0.023,0.032,1.028,99241.31,27.61,0,0,0.0,0.0,0.0,0.0,0.96,-28.0
2025-11-09T20:03:47.458043,397,-1.33,1.83,202.39,174.74,-1.99,0.023,0.033,1.03,99243.67,27.62,0,0,0.0,0.0,0.0,0.0,0.96,-28.0
2025-11-09T20:03:47.556528,398,-1.33,1.82,202.39,175.08,3.36,0.024,0.032,1.029,99239.7,27.66,0,0,0.0,0.0,0.0,0.0,0.96,-28.0
2025-11-09T20:03:47.655274,399,-1.33,1.83,202.39,174.86,-2.22,0.024,0.032,1.028,99242.33,27.6,0,0,0.0,0.0,0.0,0.0,0.96,-28.0
2025-11-09T20:03:47.756907,400,-1.33,1.83,202.4,174.85,-0.08,0.023,0.032,1.024,99242.42,27.62,0,0,0.0,0.0,0.0,0.0,0.96,-28.0
2025-11-09T20:03:47.855516,401,-1.34,1.83,202.41,174.87,0.25,0.023,0.032,1.028,99242.13,27.61,0,0,0.0,0.0,0.0,0.0,0.96,-29.0
2025-11-09T20:03:47.953664,402,-1.34,1.83,202.42,174.99,1.18,0.022,0.034,1.028,99240.73,27.58,0,0,0.0,0.0,0.0,0.0,0.96,-29.0
2025-11-09T20:03:48.056090,403,-1.34,1.83,202.42,174.69,-3.07,0.022,0.033,1.029,99244.36,27.59,0,0,0.0,0.0,0.0,0.0,0.96,-29.0
2025-11-09T20:03:48.154293,404,-1.34,1.83,202.43,174.79,1.06,0.023,0.033,1.027,99243.1,27.59,0,0,0.0,0.0,0.0,0.0,0.96,-29.0
2025-11-09T20:03:48.256508,405,-1.34,1.83,202.44,174.67,-1.21,0.023,0.032,1.029,99244.53,27.62,0,0,0.0,0.0,0.0,0.0,0.96,-31.0
2025-11-09T20:03:48.355632,406,-1.34,1.83,202.46,174.77,0.94,0.023,0.033,1.029,99243.42,27.64,0,0,0.0,0.0,0.0,0.0,0.96,-31.0
2025-11-09T20:03:48.453731,407,-1.34,1.83,202.46,174.91,1.45,0.023,0.033,1.029,99241.7,27.59,0,0,0.0,0.0,0.0,0.0,0.96,-29.0
2025-11-09T20:03:48.555850,408,-1.34,1.83,202.45,174.94,0.27,0.025,0.033,1.028,99241.39,27.64,0,0,0.0,0.0,0.0,0.0,0.96,-29.0
2025-11-09T20:03:48.654190,409,-1.34,1.83,202.46,175.08,1.47,0.023,0.034,1.029,99239.65,27.65,0,0,0.0,0.0,0.0,0.0,0.96,-29.0
2025-11-09T20:03:48.756443,410,-1.34,1.83,202.48,174.86,-2.27,0.024,0.033,1.024,99242.33,27.55,0,0,0.0,0.0,0.0,0.0,0.96,-31.0
2025-11-09T20:03:48.854746,411,-1.34,1.83,202.47,174.95,0.92,0.026,0.033,1.027,99241.25,27.59,0,0,0.0,0.0,0.0,0.0,0.96,-29.0
2025-11-09T20:03:48.957269,412,-1.34,1.83,202.45,175.0,0.56,0.024,0.033,1.028,99240.59,27.64,0,0,0.0,0.0,0.0,0.0,0.96,-29.0
2025-11-09T20:03:49.055724,413,-1.34,1.82,202.43,175.07,0.66,0.024,0.031,1.028,99239.81,27.6,0,0,0.0,0.0,0.0,0.0,0.96,-29.0
2025-11-09T20:03:49.157936,414,-1.34,1.82,202.42,174.91,-1.66,0.024,0.033,1.029,99241.77,27.62,0,0,0.0,0.0,0.0,0.0,0.96,-32.0
2025-11-09T20:03:49.256011,415,-1.33,1.82,202.4,175.21,3.05,0.023,0.033,1.029,99238.16,27.64,0,0,0.0,0.0,0.0,0.0,0.96,-31.0
2025-11-09T20:03:49.358130,416,-1.33,1.82,202.4,174.98,-2.32,0.023,0.031,1.029,99240.91,27.64,0,0,0.0,0.0,0.0,0.0,0.96,-31.0
2025-11-09T20:03:49.457285,417,-1.33,1.82,202.38,175.05,0.73,0.022,0.033,1.029,99240.05,27.64,0,0,0.0,0.0,0.0,0.0,0.96,-29.0
2025-11-09T20:03:49.555034,418,-1.33,1.82,202.37,175.12,0.69,0.021,0.035,1.03,99239.24,27.62,0,0,0.0,0.0,0.0,0.0,0.96,-29.0
2025-11-09T20:03:49.657219,419,-1.33,1.82,202.37,174.8,-3.21,0.023,0.033,1.028,99243.02,27.65,0,0,0.0,0.0,0.0,0.0,0.96,-31.0
2025-11-09T20:03:49.755931,420,-1.33,1.82,202.36,174.71,-0.87,0.024,0.031,1.026,99244.05,27.56,0,0,0.0,0.0,0.0,0.0,0.96,-29.0
2025-11-09T20:03:49.854539,421,-1.33,1.82,202.36,174.78,0.65,0.024,0.033,1.027,99243.28,27.59,0,0,0.0,0.0,0.0,0.0,0.96,-29.0
2025-11-09T20:03:49.956761,422,-1.33,1.82,202.36,174.71,-0.63,0.023,0.033,1.028,99244.02,27.65,0,0,0.0,0.0,0.0,0.0,0.96,-29.0
2025-11-09T20:03:50.058706,423,-1.33,1.82,202.37,174.64,-0.72,0.023,0.032,1.029,99244.88,27.61,0,0,0.0,0.0,0.0,0.0,0.96,-31.0
2025-11-09T20:03:50.157274,424,-1.33,1.82,202.38,174.54,-1.02,0.023,0.034,1.027,99246.08,27.63,0,0,0.0,0.0,0.0,0.0,0.96,-31.0
2025-11-09T20:03:50.255929,425,-1.33,1.82,202.39,174.61,0.72,0.022,0.034,1.028,99245.22,27.62,0,0,0.0,0.0,0.0,0.0,0.96,-29.0
2025-11-09T20:03:50.354038,426,-1.33,1.82,202.38,174.82,2.1,0.023,0.03,1.03,99242.73,27.61,0,0,0.0,0.0,0.0,0.0,0.96,-29.0
2025-11-09T20:03:50.456499,427,-1.33,1.82,202.36,174.68,-1.47,0.023,0.032,1.029,99244.48,27.62,0,0,0.0,0.0,0.0,0.0,0.96,-29.0
2025-11-09T20:03:50.554992,428,-1.33,1.82,202.36,174.85,1.71,0.023,0.032,1.027,99242.45,27.62,0,0,0.0,0.0,0.0,0.0,0.96,-29.0
2025-11-09T20:03:50.657373,429,-1.33,1.82,202.34,174.71,-1.35,0.024,0.033,1.028,99244.05,27.66,0,0,0.0,0.0,0.0,0.0,0.96,-29.0
2025-11-09T20:03:50.755741,430,-1.33,1.82,202.35,174.97,2.62,0.021,0.033,1.025,99240.96,27.6,0,0,0.0,0.0,0.0,0.0,0.96,-29.0
2025-11-09T20:03:50.857532,431,-1.33,1.81,202.33,174.71,-2.66,0.024,0.032,1.028,99244.1,27.59,0,0,0.0,0.0,0.0,0.0,0.96,-29.0
2025-11-09T20:03:50.955941,432,-1.33,1.81,202.33,174.81,0.99,0.024,0.031,1.026,99242.94,27.54,0,0,0.0,0.0,0.0,0.0,0.96,-29.0
2025-11-09T20:03:51.058217,433,-1.33,1.81,202.33,174.61,-2.0,0.023,0.03,1.029,99245.3,27.6,0,0,0.0,0.0,0.0,0.0,0.96,-31.0
2025-11-09T20:03:51.156339,434,-1.33,1.81,202.33,174.91,3.02,0.024,0.033,1.028,99241.73,27.55,0,0,0.0,0.0,0.0,0.0,0.96,-29.0
2025-11-09T20:03:51.258714,435,-1.33,1.81,202.34,174.75,-1.57,0.023,0.032,1.028,99243.59,27.61,0,0,0.0,0.0,0.0,0.0,0.96,-29.0
2025-11-09T20:03:51.356918,436,-1.33,1.82,202.35,174.91,1.54,0.023,0.033,1.03,99241.77,27.63,0,0,0.0,0.0,0.0,0.0,0.96,-29.0
2025-11-09T20:03:51.456226,437,-1.33,1.82,202.35,174.88,-0.29,0.024,0.033,1.029,99242.11,27.63,0,0,0.0,0.0,0.0,0.0,0.96,-31.0
2025-11-09T20:03:51.557870,438,-1.33,1.82,202.36,174.85,-0.3,0.023,0.034,1.029,99242.45,27.64,0,0,0.0,0.0,0.0,0.0,0.96,-32.0
2025-11-09T20:03:51.656352,439,-1.33,1.82,202.34,174.89,0.44,0.023,0.033,1.029,99241.94,27.65,0,0,0.0,0.0,0.0,0.0,0.96,-29.0
2025-11-09T20:03:51.758493,440,-1.33,1.82,202.34,174.71,-1.79,0.024,0.031,1.025,99244.05,27.55,0,0,0.0,0.0,0.0,0.0,0.96,-31.0
2025-11-09T20:03:51.856834,441,-1.33,1.82,202.33,174.76,0.49,0.023,0.032,1.027,99243.48,27.56,0,0,0.0,0.0,0.0,0.0,0.96,-29.0
2025-11-09T20:03:51.955245,442,-1.33,1.81,202.32,174.88,1.16,0.023,0.033,1.027,99242.11,27.61,0,0,0.0,0.0,0.0,0.0,0.96,-29.0
2025-11-09T20:03:52.156094,443,-1.33,1.81,202.31,174.77,-1.06,0.025,0.034,1.029,99243.36,27.62,0,0,0.0,0.0,0.0,0.0,0.96,-31.0
2025-11-09T20:03:52.254408,444,-1.33,1.81,202.3,174.87,1.01,0.022,0.03,1.029,99242.17,27.64,0,0,0.0,0.0,0.0,0.0,0.96,-31.0
2025-11-09T20:03:52.357306,445,-1.33,1.81,202.3,174.72,-1.5,0.024,0.032,1.028,99243.94,27.6,0,0,0.0,0.0,0.0,0.0,0.96,-31.0
2025-11-09T20:03:52.455463,446,-1.33,1.81,202.3,174.74,0.18,0.023,0.033,1.028,99243.73,27.61,0,0,0.0,0.0,0.0,0.0,0.96,-29.0
2025-11-09T20:03:52.557646,447,-1.33,1.81,202.29,174.53,-2.08,0.023,0.034,1.029,99246.19,27.6,0,0,0.0,0.0,0.0,0.0,0.96,-29.0
2025-11-09T20:03:52.655947,448,-1.33,1.81,202.28,174.81,2.8,0.024,0.032,1.029,99242.88,27.63,0,0,0.0,0.0,0.0,0.0,0.96,-29.0
2025-11-09T20:03:52.758059,449,-1.33,1.81,202.28,174.63,-1.83,0.022,0.031,1.024,99245.05,27.58,0,0,0.0,0.0,0.0,0.0,0.96,-29.0
2025-11-09T20:03:52.856157,450,-1.33,1.81,202.27,174.75,1.27,0.023,0.032,1.025,99243.55,27.56,0,0,0.0,0.0,0.0,0.0,0.96,-29.0
2025-11-09T20:03:52.958614,451,-1.33,1.81,202.26,174.56,-1.97,0.023,0.032,1.027,99245.88,27.61,0,0,0.0,0.0,0.0,0.0,0.96,-31.0
2025-11-09T20:03:53.056785,452,-1.33,1.81,202.25,174.83,2.69,0.024,0.034,1.027,99242.7,27.57,0,0,0.0,0.0,0.0,0.0,0.96,-29.0
2025-11-09T20:03:53.159705,453,-1.33,1.81,202.24,174.65,-1.81,0.025,0.033,1.029,99244.83,27.64,0,0,0.0,0.0,0.0,0.0,0.96,-29.0
2025-11-09T20:03:53.257410,454,-1.33,1.8,202.22,174.65,0.06,0.024,0.032,1.029,99244.77,27.61,0,0,0.0,0.0,0.0,0.0,0.96,-29.0
2025-11-09T20:03:53.356061,455,-1.33,1.8,202.22,174.7,0.43,0.024,0.034,1.029,99244.25,27.6,0,0,0.0,0.0,0.0,0.0,0.96,-29.0
2025-11-09T20:03:53.458919,456,-1.33,1.8,202.2,174.56,-1.31,0.023,0.033,1.027,99245.8,27.61,0,0,0.0,0.0,0.0,0.0,0.96,-31.0
2025-11-09T20:03:53.556618,457,-1.33,1.8,202.22,174.62,0.58,0.022,0.031,1.027,99245.11,27.6,0,0,0.0,0.0,0.0,0.0,0.96,-29.0
2025-11-09T20:03:53.658902,458,-1.33,1.8,202.22,174.45,-1.72,0.022,0.033,1.03,99247.14,27.64,0,0,0.0,0.0,0.0,0.0,0.96,-29.0
2025-11-09T20:03:53.757245,459,-1.33,1.8,202.21,174.65,2.01,0.024,0.032,1.024,99244.77,27.58,0,0,0.0,0.0,0.0,0.0,0.96,-29.0
2025-11-09T20:03:53.855969,460,-1.33,1.8,202.21,174.62,-0.32,0.023,0.032,1.026,99245.14,27.54,0,0,0.0,0.0,0.0,0.0,0.96,-31.0
2025-11-09T20:03:53.958031,461,-1.33,1.8,202.19,174.74,1.21,0.023,0.03,1.028,99243.71,27.61,0,0,0.0,0.0,0.0,0.0,0.96,-29.0
2025-11-09T20:03:54.056644,462,-1.33,1.8,202.18,174.7,-0.43,0.023,0.032,1.028,99244.22,27.63,0,0,0.0,0.0,0.0,0.0,0.96,-31.0
2025-11-09T20:03:54.155006,463,-1.33,1.8,202.17,174.74,0.41,0.024,0.033,1.028,99243.73,27.64,0,0,0.0,0.0,0.0,0.0,0.96,-29.0
2025-11-09T20:03:54.257105,464,-1.33,1.8,202.18,174.46,-2.81,0.023,0.034,1.027,99247.05,27.64,0,0,0.0,0.0,0.0,0.0,0.96,-29.0
2025-11-09T20:03:54.356192,465,-1.33,1.8,202.17,174.79,3.31,0.023,0.035,1.029,99243.14,27.65,0,0,0.0,0.0,0.0,0.0,0.96,-29.0
2025-11-09T20:03:54.457777,466,-1.33,1.8,202.18,174.62,-1.65,0.023,0.033,1.031,99245.08,27.64,0,0,0.0,0.0,0.0,0.0,0.96,-31.0
2025-11-09T20:03:54.556066,467,-1.33,1.81,202.18,174.65,0.3,0.023,0.033,1.029,99244.73,27.65,0,0,0.0,0.0,0.0,0.0,0.96,-29.0
2025-11-09T20:03:54.658308,468,-1.33,1.81,202.18,174.73,0.79,0.024,0.033,1.029,99243.8,27.63,0,0,0.0,0.0,0.0,0.0,0.96,-29.0
2025-11-09T20:03:54.756920,469,-1.33,1.8,202.16,174.91,1.76,0.022,0.032,1.026,99241.71,27.6,0,0,0.0,0.0,0.0,0.0,0.96,-28.0
2025-11-09T20:03:54.859272,470,-1.33,1.8,202.15,174.78,-1.27,0.023,0.033,1.027,99243.22,27.57,0,0,0.0,0.0,0.0,0.0,0.96,-31.0
2025-11-09T20:03:54.957923,471,-1.33,1.8,202.15,174.73,-0.57,0.024,0.033,1.028,99243.89,27.58,0,0,0.0,0.0,0.0,0.0,0.96,-29.0
2025-11-09T20:03:55.056354,472,-1.33,1.8,202.14,174.77,0.44,0.023,0.033,1.028,99243.37,27.59,0,0,0.0,0.0,0.0,0.0,0.96,-29.0
2025-11-09T20:03:55.158546,473,-1.33,1.8,202.15,174.77,-0.03,0.022,0.031,1.029,99243.4,27.6,0,0,0.0,0.0,0.0,0.0,0.96,-29.0
2025-11-09T20:03:55.256703,474,-1.33,1.8,202.15,174.94,1.76,0.023,0.032,1.03,99241.31,27.62,0,0,0.0,0.0,0.0,0.0,0.96,-29.0
2025-11-09T20:03:55.359635,475,-1.33,1.8,202.15,174.75,-1.96,0.023,0.032,1.03,99243.62,27.63,0,0,0.0,0.0,0.0,0.0,0.96,-29.0
2025-11-09T20:03:55.457022,476,-1.33,1.8,202.15,174.85,0.99,0.023,0.033,1.027,99242.45,27.64,0,0,0.0,0.0,0.0,0.0,0.96,-29.0
2025-11-09T20:03:55.559432,477,-1.33,1.8,202.15,174.82,-0.29,0.024,0.033,1.028,99242.8,27.6,0,0,0.0,0.0,0.0,0.0,0.96,-29.0
2025-11-09T20:03:55.658112,478,-1.33,1.81,202.16,174.93,1.09,0.023,0.033,1.028,99241.52,27.66,0,0,0.0,0.0,0.0,0.0,0.96,-29.0
2025-11-09T20:03:55.760075,479,-1.33,1.8,202.14,174.47,-4.55,0.023,0.032,1.024,99246.88,27.55,0,0,0.0,0.0,0.0,0.0,0.96,-29.0
2025-11-09T20:03:55.858400,480,-1.33,1.81,202.17,174.98,5.11,0.023,0.033,1.028,99240.85,27.6,0,0,0.0,0.0,0.0,0.0,0.96,-29.0
2025-11-09T20:03:55.957540,481,-1.33,1.81,202.17,174.79,-1.94,0.023,0.033,1.028,99243.14,27.57,0,0,0.0,0.0,0.0,0.0,0.96,-31.0
2025-11-09T20:03:56.055422,482,-1.33,1.81,202.18,175.01,2.24,0.024,0.033,1.028,99240.48,27.59,0,0,0.0,0.0,0.0,0.0,0.96,-29.0
2025-11-09T20:03:56.157700,483,-1.33,1.81,202.17,174.84,-1.74,0.024,0.034,1.031,99242.54,27.61,0,0,0.0,0.0,0.0,0.0,0.96,-29.0
2025-11-09T20:03:56.259812,484,-1.33,1.81,202.16,174.84,-0.01,0.023,0.032,1.027,99242.55,27.59,0,0,0.0,0.0,0.0,0.0,0.96,-31.0
2025-11-09T20:03:56.358094,485,-1.33,1.81,202.17,174.9,0.61,0.025,0.033,1.029,99241.83,27.63,0,0,0.0,0.0,0.0,0.0,0.96,-29.0
2025-11-09T20:03:56.456471,486,-1.33,1.81,202.16,174.92,0.25,0.024,0.033,1.028,99241.54,27.62,0,0,0.0,0.0,0.0,0.0,0.96,-29.0
2025-11-09T20:03:56.558912,487,-1.33,1.81,202.16,174.88,-0.48,0.024,0.031,1.029,99242.11,27.61,0,0,0.0,0.0,0.0,0.0,0.96,-31.0
2025-11-09T20:03:56.657257,488,-1.33,1.81,202.16,174.94,0.67,0.022,0.032,1.03,99241.31,27.62,0,0,0.0,0.0,0.0,0.0,0.96,-29.0
2025-11-09T20:03:56.759580,489,-1.33,1.81,202.15,174.78,-1.59,0.022,0.033,1.027,99243.2,27.59,0,0,0.0,0.0,0.0,0.0,0.96,-29.0
2025-11-09T20:03:56.858072,490,-1.33,1.81,202.16,174.68,-1.02,0.023,0.032,1.027,99244.4,27.61,0,0,0.0,0.0,0.0,0.0,0.96,-29.0
2025-11-09T20:03:56.956885,491,-1.33,1.81,202.15,174.81,1.25,0.023,0.035,1.028,99242.91,27.61,0,0,0.0,0.0,0.0,0.0,0.96,-29.0
2025-11-09T20:03:57.059852,492,-1.33,1.81,202.15,174.71,-0.99,0.025,0.032,1.028,99244.08,27.6,0,0,0.0,0.0,0.0,0.0,0.96,-31.0
2025-11-09T20:03:57.157217,493,-1.33,1.81,202.14,174.98,2.74,0.025,0.033,1.026,99240.85,27.6,0,0,0.0,0.0,0.0,0.0,0.96,-29.0
2025-11-09T20:03:57.259689,494,-1.33,1.81,202.14,174.65,-3.37,0.023,0.032,1.029,99244.83,27.62,0,0,0.0,0.0,0.0,0.0,0.96,-31.0
2025-11-09T20:03:57.358021,495,-1.33,1.81,202.14,174.78,1.33,0.025,0.034,1.028,99243.26,27.62,0,0,0.0,0.0,0.0,0.0,0.96,-29.0
2025-11-09T20:03:57.460226,496,-1.33,1.81,202.13,174.63,-1.48,0.024,0.033,1.029,99245.0,27.63,0,0,0.0,0.0,0.0,0.0,0.96,-29.0
2025-11-09T20:03:57.558501,497,-1.33,1.81,202.13,174.91,2.8,0.022,0.031,1.03,99241.69,27.6,0,0,0.0,0.0,0.0,0.0,0.96,-29.0
2025-11-09T20:03:57.660849,498,-1.33,1.81,202.13,174.78,-1.34,0.023,0.031,1.03,99243.28,27.62,0,0,0.0,0.0,0.0,0.0,0.96,-31.0
2025-11-09T20:03:57.759141,499,-1.33,1.81,202.13,174.8,0.26,0.022,0.033,1.025,99242.97,27.59,0,0,0.0,0.0,0.0,0.0,0.96,-29.0
2025-11-09T20:03:57.857759,500,-1.33,1.81,202.13,174.74,-0.64,0.023,0.032,1.026,99243.73,27.6,0,0,0.0,0.0,0.0,0.0,0.96,-29.0
2025-11-09T20:03:57.956376,501,-1.33,1.81,202.13,174.82,0.84,0.024,0.032,1.028,99242.73,27.61,0,0,0.0,0.0,0.0,0.0,0.96,-29.0
2025-11-09T20:03:58.058532,502,-1.33,1.81,202.13,174.79,-0.34,0.023,0.033,1.028,99243.14,27.58,0,0,0.0,0.0,0.0,0.0,0.96,-29.0
2025-11-09T20:03:58.157038,503,-1.33,1.81,202.15,174.97,1.82,0.026,0.032,1.028,99241.0,27.6,0,0,0.0,0.0,0.0,0.0,0.96,-31.0
2025-11-09T20:03:58.258770,504,-1.33,1.81,202.16,175.02,0.46,0.021,0.033,1.028,99240.45,27.59,0,0,0.0,0.0,0.0,0.0,0.96,-29.0
2025-11-09T20:03:58.357383,505,-1.34,1.81,202.15,175.03,0.15,0.026,0.031,1.029,99240.28,27.64,0,0,0.0,0.0,0.0,0.0,0.96,-29.0
2025-11-09T20:03:58.459816,506,-1.34,1.81,202.15,174.91,-1.26,0.022,0.032,1.029,99241.77,27.61,0,0,0.0,0.0,0.0,0.0,0.96,-29.0
2025-11-09T20:03:58.558268,507,-1.34,1.82,202.18,174.84,-0.65,0.023,0.034,1.029,99242.54,27.66,0,0,0.0,0.0,0.0,0.0,0.96,-31.0
2025-11-09T20:03:58.656733,508,-1.34,1.82,202.18,175.13,2.88,0.023,0.035,1.03,99239.14,27.64,0,0,0.0,0.0,0.0,0.0,0.96,-29.0
2025-11-09T20:03:58.758942,509,-1.34,1.82,202.18,175.0,-1.26,0.024,0.034,1.024,99240.62,27.58,0,0,0.0,0.0,0.0,0.0,0.96,-31.0
2025-11-09T20:03:58.860812,510,-1.34,1.82,202.19,174.94,-0.63,0.024,0.032,1.027,99241.38,27.63,0,0,0.0,0.0,0.0,0.0,0.96,-31.0
2025-11-09T20:03:58.959606,511,-1.34,1.82,202.19,174.88,-0.55,0.023,0.034,1.028,99242.02,27.6,0,0,0.0,0.0,0.0,0.0,0.96,-29.0
2025-11-09T20:03:59.057784,512,-1.34,1.82,202.2,175.1,2.17,0.023,0.033,1.028,99239.45,27.62,0,0,0.0,0.0,0.0,0.0,0.96,-31.0
2025-11-09T20:03:59.160116,513,-1.34,1.82,202.18,174.88,-2.17,0.023,0.033,1.03,99242.02,27.59,0,0,0.0,0.0,0.0,0.0,0.96,-29.0
2025-11-09T20:03:59.258566,514,-1.34,1.82,202.17,175.1,2.17,0.024,0.032,1.028,99239.45,27.58,0,0,0.0,0.0,0.0,0.0,0.96,-29.0
2025-11-09T20:03:59.360454,515,-1.33,1.82,202.15,174.89,-2.08,0.024,0.033,1.027,99241.91,27.63,0,0,0.0,0.0,0.0,0.0,0.96,-31.0
2025-11-09T20:03:59.462077,516,-1.33,1.82,202.15,175.22,3.24,0.023,0.031,1.028,99238.08,27.61,0,0,0.0,0.0,0.0,0.0,0.96,-29.0
2025-11-09T20:03:59.560969,517,-1.33,1.81,202.13,175.09,-1.24,0.024,0.035,1.028,99239.54,27.6,0,0,0.0,0.0,0.0,0.0,0.96,-29.0
2025-11-09T20:03:59.659823,518,-1.33,1.81,202.13,175.01,-0.8,0.023,0.034,1.029,99240.48,27.65,0,0,0.0,0.0,0.0,0.0,0.96,-31.0
2025-11-09T20:03:59.757937,519,-1.33,1.81,202.14,175.14,1.28,0.023,0.033,1.025,99238.97,27.59,0,0,0.0,0.0,0.0,0.0,0.96,-29.0
2025-11-09T20:03:59.860046,520,-1.33,1.81,202.14,175.0,-1.45,0.024,0.032,1.027,99240.68,27.57,0,0,0.0,0.0,0.0,0.0,0.96,-31.0
2025-11-09T20:03:59.958503,521,-1.33,1.81,202.14,175.2,2.03,0.024,0.033,1.027,99238.28,27.59,0,0,0.0,0.0,0.0,0.0,0.96,-29.0
2025-11-09T20:04:00.060790,522,-1.33,1.81,202.13,175.08,-1.2,0.025,0.031,1.028,99239.7,27.62,0,0,0.0,0.0,0.0,0.0,0.96,-29.0
2025-11-09T20:04:00.159645,523,-1.33,1.81,202.13,175.04,-0.43,0.022,0.03,1.029,99240.22,27.58,0,0,0.0,0.0,0.0,0.0,0.96,-29.0
2025-11-09T20:04:00.258008,524,-1.33,1.81,202.14,175.04,0.04,0.024,0.032,1.029,99240.17,27.66,0,0,0.0,0.0,0.0,0.0,0.96,-29.0
2025-11-09T20:04:00.360308,525,-1.33,1.82,202.16,174.99,-0.48,0.024,0.033,1.027,99240.74,27.62,0,0,0.0,0.0,0.0,0.0,0.96,-31.0
2025-11-09T20:04:00.458919,526,-1.33,1.82,202.16,174.75,-2.39,0.023,0.032,1.03,99243.56,27.61,0,0,0.0,0.0,0.0,0.0,0.96,-31.0
2025-11-09T20:04:00.557263,527,-1.33,1.81,202.14,174.97,2.14,0.023,0.033,1.028,99241.03,27.6,0,0,0.0,0.0,0.0,0.0,0.96,-29.0
2025-11-09T20:04:00.659498,528,-1.33,1.81,202.14,174.9,-0.67,0.024,0.032,1.028,99241.83,27.61,0,0,0.0,0.0,0.0,0.0,0.96,-31.0
2025-11-09T20:04:00.757560,529,-1.33,1.81,202.14,174.98,0.83,0.023,0.031,1.023,99240.85,27.54,0,0,0.0,0.0,0.0,0.0,0.96,-29.0
2025-11-09T20:04:00.859616,530,-1.33,1.81,202.13,175.0,0.12,0.023,0.032,1.027,99240.7,27.59,0,0,0.0,0.0,0.0,0.0,0.96,-31.0
2025-11-09T20:04:00.958494,531,-1.33,1.81,202.13,174.74,-2.55,0.024,0.032,1.027,99243.71,27.55,0,0,0.0,0.0,0.0,0.0,0.96,-31.0
2025-11-09T20:04:01.060313,532,-1.33,1.81,202.13,174.73,-0.09,0.023,0.034,1.029,99243.82,27.61,0,0,0.0,0.0,0.0,0.0,0.96,-29.0
2025-11-09T20:04:01.158729,533,-1.33,1.81,202.13,174.83,0.96,0.022,0.032,1.028,99242.69,27.61,0,0,0.0,0.0,0.0,0.0,0.96,-29.0
2025-11-09T20:04:01.261208,534,-1.33,1.81,202.12,174.73,-0.94,0.025,0.033,1.029,99243.8,27.59,0,0,0.0,0.0,0.0,0.0,0.96,-29.0
2025-11-09T20:04:01.359542,535,-1.34,1.81,202.13,174.86,1.28,0.023,0.034,1.03,99242.28,27.6,0,0,0.0,0.0,0.0,0.0,0.96,-29.0
2025-11-09T20:04:01.461635,536,-1.34,1.82,202.14,174.85,-0.12,0.023,0.034,1.029,99242.42,27.61,0,0,0.0,0.0,0.0,0.0,0.96,-29.0
2025-11-09T20:04:01.560328,537,-1.34,1.82,202.13,174.74,-1.11,0.022,0.034,1.028,99243.73,27.63,0,0,0.0,0.0,0.0,0.0,0.96,-31.0
2025-11-09T20:04:01.658849,538,-1.33,1.82,202.12,174.77,0.31,0.024,0.033,1.028,99243.37,27.64,0,0,0.0,0.0,0.0,0.0,0.96,-29.0
2025-11-09T20:04:01.760689,539,-1.33,1.81,202.1,174.73,-0.44,0.023,0.031,1.025,99243.89,27.55,0,0,0.0,0.0,0.0,0.0,0.96,-31.0
2025-11-09T20:04:01.859639,540,-1.33,1.81,202.09,174.56,-1.61,0.023,0.033,1.029,99245.8,27.59,0,0,0.0,0.0,0.0,0.0,0.96,-29.0
2025-11-09T20:04:01.957907,541,-1.33,1.81,202.1,174.74,1.76,0.024,0.033,1.028,99243.71,27.59,0,0,0.0,0.0,0.0,0.0,0.96,-29.0
2025-11-09T20:04:02.060161,542,-1.33,1.81,202.11,174.71,-0.29,0.022,0.033,1.026,99244.05,27.53,0,0,0.0,0.0,0.0,0.0,0.96,-29.0
2025-11-09T20:04:02.158434,543,-1.33,1.81,202.09,174.78,0.71,0.023,0.031,1.028,99243.22,27.57,0,0,0.0,0.0,0.0,0.0,0.96,-29.0
2025-11-09T20:04:02.260600,544,-1.33,1.81,202.09,174.71,-0.76,0.024,0.034,1.027,99244.11,27.59,0,0,0.0,0.0,0.0,0.0,0.96,-29.0
2025-11-09T20:04:02.358885,545,-1.34,1.81,202.11,174.72,0.17,0.023,0.031,1.029,99243.91,27.6,0,0,0.0,0.0,0.0,0.0,0.96,-29.0
2025-11-09T20:04:02.461241,546,-1.34,1.82,202.13,174.65,-0.73,0.022,0.034,1.029,99244.77,27.6,0,0,0.0,0.0,0.0,0.0,0.96,-29.0
2025-11-09T20:04:02.559703,547,-1.34,1.82,202.14,174.54,-1.08,0.023,0.031,1.028,99246.05,27.62,0,0,0.0,0.0,0.0,0.0,0.96,-29.0
2025-11-09T20:04:02.658071,548,-1.34,1.82,202.15,174.63,0.87,0.024,0.034,1.028,99245.03,27.63,0,0,0.0,0.0,0.0,0.0,0.96,-29.0
2025-11-09T20:04:02.760451,549,-1.33,1.82,202.14,174.47,-1.59,0.024,0.034,1.024,99246.91,27.54,0,0,0.0,0.0,0.0,0.0,0.96,-29.0
2025-11-09T20:04:02.858917,550,-1.34,1.82,202.15,174.49,0.19,0.023,0.033,1.028,99246.69,27.59,0,0,0.0,0.0,0.0,0.0,0.96,-29.0
2025-11-09T20:04:02.960897,551,-1.34,1.82,202.16,174.56,0.68,0.024,0.032,1.028,99245.88,27.61,0,0,0.0,0.0,0.0,0.0,0.96,-28.0
2025-11-09T20:04:03.059535,552,-1.34,1.82,202.16,174.85,2.97,0.023,0.033,1.027,99242.38,27.59,0,0,0.0,0.0,0.0,0.0,0.96,-28.0
2025-11-09T20:04:03.161524,553,-1.34,1.82,202.16,174.75,-1.03,0.022,0.033,1.025,99243.59,27.57,0,0,0.0,0.0,0.0,0.0,0.96,-28.0
2025-11-09T20:04:03.260341,554,-1.34,1.82,202.17,174.71,-0.42,0.024,0.032,1.029,99244.09,27.6,0,0,0.0,0.0,0.0,0.0,0.96,-28.0
2025-11-09T20:04:03.358531,555,-1.34,1.82,202.16,174.74,0.34,0.024,0.032,1.028,99243.69,27.59,0,0,0.0,0.0,0.0,0.0,0.96,-27.0
2025-11-09T20:04:03.460923,556,-1.34,1.82,202.18,174.62,-1.21,0.024,0.034,1.028,99245.11,27.61,0,0,0.0,0.0,0.0,0.0,0.96,-28.0
2025-11-09T20:04:03.559211,557,-1.34,1.83,202.21,174.66,0.33,0.024,0.033,1.029,99244.72,27.62,0,0,0.0,0.0,0.0,0.0,0.96,-28.0
2025-11-09T20:04:03.661313,558,-1.34,1.83,202.19,174.69,0.39,0.022,0.032,1.03,99244.27,27.64,0,0,0.0,0.0,0.0,0.0,0.96,-27.0
2025-11-09T20:04:03.759670,559,-1.34,1.82,202.18,174.86,1.67,0.022,0.031,1.023,99242.29,27.54,0,0,0.0,0.0,0.0,0.0,0.96,-27.0
2025-11-09T20:04:03.861923,560,-1.34,1.82,202.18,174.67,-1.88,0.022,0.034,1.026,99244.52,27.54,0,0,0.0,0.0,0.0,0.0,0.96,-28.0
2025-11-09T20:04:03.960205,561,-1.33,1.82,202.16,174.77,1.02,0.022,0.032,1.027,99243.31,27.6,0,0,0.0,0.0,0.0,0.0,0.96,-28.0
2025-11-09T20:04:04.062378,562,-1.33,1.82,202.16,174.56,-2.13,0.025,0.033,1.028,99245.83,27.59,0,0,0.0,0.0,0.0,0.0,0.96,-28.0
2025-11-09T20:04:04.160771,563,-1.33,1.82,202.16,174.77,2.13,0.024,0.033,1.027,99243.31,27.58,0,0,0.0,0.0,0.0,0.0,0.96,-28.0
2025-11-09T20:04:04.259878,564,-1.33,1.82,202.16,174.59,-1.81,0.024,0.032,1.026,99245.45,27.59,0,0,0.0,0.0,0.0,0.0,0.96,-29.0
2025-11-09T20:04:04.358135,565,-1.34,1.82,202.16,174.85,2.58,0.023,0.031,1.028,99242.41,27.63,0,0,0.0,0.0,0.0,0.0,0.96,-28.0
2025-11-09T20:04:04.460291,566,-1.33,1.82,202.17,174.58,-2.69,0.023,0.032,1.028,99245.59,27.59,0,0,0.0,0.0,0.0,0.0,0.96,-28.0
2025-11-09T20:04:04.558801,567,-1.34,1.82,202.18,174.76,1.83,0.022,0.031,1.029,99243.43,27.6,0,0,0.0,0.0,0.0,0.0,0.96,-27.0
2025-11-09T20:04:04.660999,568,-1.34,1.82,202.19,174.71,-0.57,0.025,0.032,1.028,99244.11,27.59,0,0,0.0,0.0,0.0,0.0,0.96,-29.0
2025-11-09T20:04:04.759400,569,-1.34,1.83,202.21,174.76,0.53,0.024,0.033,1.025,99243.48,27.52,0,0,0.0,0.0,0.0,0.0,0.96,-27.0
2025-11-09T20:04:04.861576,570,-1.34,1.83,202.24,174.75,-0.09,0.023,0.033,1.028,99243.59,27.56,0,0,0.0,0.0,0.0,0.0,0.96,-28.0
2025-11-09T20:04:04.959985,571,-1.34,1.83,202.26,174.78,0.31,0.023,0.034,1.028,99243.23,27.6,0,0,0.0,0.0,0.0,0.0,0.96,-28.0
2025-11-09T20:04:05.062145,572,-1.34,1.84,202.28,174.77,-0.17,0.024,0.032,1.028,99243.42,27.56,0,0,0.0,0.0,0.0,0.0,0.96,-28.0
2025-11-09T20:04:05.160596,573,-1.34,1.84,202.29,174.66,-1.02,0.023,0.033,1.029,99244.62,27.6,0,0,0.0,0.0,0.0,0.0,0.96,-28.0
2025-11-09T20:04:05.258903,574,-1.34,1.84,202.3,174.84,1.81,0.022,0.033,1.029,99242.48,27.59,0,0,0.0,0.0,0.0,0.0,0.96,-27.0
2025-11-09T20:04:05.361195,575,-1.34,1.84,202.3,174.78,-0.62,0.023,0.033,1.029,99243.23,27.61,0,0,0.0,0.0,0.0,0.0,0.96,-28.0
2025-11-09T20:04:05.459483,576,-1.34,1.84,202.31,174.93,1.45,0.023,0.033,1.029,99241.52,27.63,0,0,0.0,0.0,0.0,0.0,0.96,-27.0
2025-11-09T20:04:05.561686,577,-1.34,1.84,202.32,174.87,-0.6,0.024,0.031,1.03,99242.22,27.62,0,0,0.0,0.0,0.0,0.0,0.96,-28.0
2025-11-09T20:04:05.660353,578,-1.34,1.84,202.34,174.89,0.21,0.023,0.032,1.03,99241.97,27.62,0,0,0.0,0.0,0.0,0.0,0.96,-28.0
2025-11-09T20:04:05.762524,579,-1.34,1.84,202.35,174.49,-3.94,0.023,0.032,1.025,99246.62,27.55,0,0,0.0,0.0,0.0,0.0,0.96,-29.0
2025-11-09T20:04:05.860916,580,-1.34,1.84,202.35,174.63,1.4,0.023,0.033,1.027,99244.97,27.61,0,0,0.0,0.0,0.0,0.0,0.96,-28.0
2025-11-09T20:04:05.963158,581,-1.34,1.84,202.37,174.55,-0.82,0.023,0.032,1.027,99245.94,27.56,0,0,0.0,0.0,0.0,0.0,0.96,-28.0
2025-11-09T20:04:06.061200,582,-1.34,1.85,202.39,174.92,3.65,0.025,0.036,1.029,99241.62,27.6,0,0,0.0,0.0,0.0,0.0,0.96,-28.0
2025-11-09T20:04:06.160283,583,-1.35,1.85,202.4,174.85,-0.7,0.023,0.033,1.029,99242.45,27.58,0,0,0.0,0.0,0.0,0.0,0.96,-29.0
2025-11-09T20:04:06.262270,584,-1.35,1.85,202.4,174.79,-0.6,0.024,0.031,1.029,99243.17,27.61,0,0,0.0,0.0,0.0,0.0,0.96,-28.0
2025-11-09T20:04:06.360880,585,-1.35,1.85,202.42,174.5,-2.88,0.023,0.029,1.028,99246.57,27.61,0,0,0.0,0.0,0.0,0.0,0.96,-29.0
2025-11-09T20:04:06.459272,586,-1.35,1.85,202.42,174.77,2.67,0.023,0.035,1.028,99243.41,27.62,0,0,0.0,0.0,0.0,0.0,0.96,-28.0
2025-11-09T20:04:06.561478,587,-1.35,1.85,202.42,174.77,-0.01,0.026,0.033,1.029,99243.42,27.58,0,0,0.0,0.0,0.0,0.0,0.96,-28.0
2025-11-09T20:04:06.663231,588,-1.35,1.85,202.42,174.59,-1.72,0.024,0.032,1.028,99245.45,27.6,0,0,0.0,0.0,0.0,0.0,0.96,-29.0
2025-11-09T20:04:06.761525,589,-1.35,1.84,202.4,175.0,4.06,0.024,0.032,1.028,99240.66,27.52,0,0,0.0,0.0,0.0,0.0,0.96,-28.0
2025-11-09T20:04:06.860492,590,-1.34,1.84,202.41,174.85,-1.48,0.022,0.03,1.026,99242.4,27.59,0,0,0.0,0.0,0.0,0.0,0.96,-29.0
2025-11-09T20:04:06.962479,591,-1.34,1.85,202.43,174.68,-1.73,0.022,0.032,1.028,99244.45,27.59,0,0,0.0,0.0,0.0,0.0,0.96,-29.0
2025-11-09T20:04:07.060812,592,-1.35,1.84,202.43,174.81,1.3,0.025,0.032,1.029,99242.91,27.59,0,0,0.0,0.0,0.0,0.0,0.96,-29.0
2025-11-09T20:04:07.162958,593,-1.34,1.84,202.43,174.76,-0.51,0.021,0.032,1.029,99243.52,27.62,0,0,0.0,0.0,0.0,0.0,0.96,-29.0
2025-11-09T20:04:07.261819,594,-1.35,1.84,202.44,174.69,-0.7,0.023,0.033,1.027,99244.34,27.57,0,0,0.0,0.0,0.0,0.0,0.96,-29.0
2025-11-09T20:04:07.359693,595,-1.35,1.85,202.47,174.72,0.36,0.022,0.032,1.028,99243.91,27.57,0,0,0.0,0.0,0.0,0.0,0.96,-29.0
2025-11-09T20:04:07.461800,596,-1.35,1.85,202.48,174.74,0.16,0.022,0.033,1.028,99243.73,27.62,0,0,0.0,0.0,0.0,0.0,0.96,-29.0
2025-11-09T20:04:07.560319,597,-1.35,1.85,202.5,174.77,0.33,0.024,0.033,1.029,99243.34,27.64,0,0,0.0,0.0,0.0,0.0,0.96,-29.0
2025-11-09T20:04:07.662497,598,-1.35,1.85,202.5,174.64,-1.33,0.023,0.034,1.027,99244.91,27.63,0,0,0.0,0.0,0.0,0.0,0.96,-28.0
2025-11-09T20:04:07.760883,599,-1.35,1.85,202.51,174.7,0.6,0.023,0.033,1.025,99244.2,27.53,0,0,0.0,0.0,0.0,0.0,0.96,-29.0
2025-11-09T20:04:07.859874,600,-1.35,1.85,202.49,174.77,0.71,0.024,0.033,1.028,99243.37,27.56,0,0,0.0,0.0,0.0,0.0,0.96,-29.0
2025-11-09T20:04:07.961653,601,-1.35,1.84,202.49,174.74,-0.32,0.024,0.031,1.027,99243.74,27.55,0,0,0.0,0.0,0.0,0.0,0.96,-29.0
2025-11-09T20:04:08.060234,602,-1.35,1.84,202.49,174.65,-0.89,0.022,0.032,1.028,99244.8,27.58,0,0,0.0,0.0,0.0,0.0,0.96,-29.0
2025-11-09T20:04:08.162614,603,-1.35,1.84,202.49,174.77,1.23,0.024,0.031,1.028,99243.34,27.61,0,0,0.0,0.0,0.0,0.0,0.96,-28.0
2025-11-09T20:04:08.261693,604,-1.34,1.84,202.47,174.69,-0.79,0.023,0.032,1.026,99244.28,27.61,0,0,0.0,0.0,0.0,0.0,0.96,-29.0
2025-11-09T20:04:08.362994,605,-1.34,1.84,202.45,174.64,-0.56,0.024,0.033,1.028,99244.95,27.6,0,0,0.0,0.0,0.0,0.0,0.96,-29.0
2025-11-09T20:04:08.461322,606,-1.34,1.83,202.45,174.84,2.03,0.025,0.031,1.029,99242.55,27.64,0,0,0.0,0.0,0.0,0.0,0.96,-29.0
2025-11-09T20:04:08.563649,607,-1.34,1.84,202.45,174.66,-1.76,0.023,0.032,1.028,99244.62,27.63,0,0,0.0,0.0,0.0,0.0,0.96,-29.0
2025-11-09T20:04:08.662129,608,-1.34,1.84,202.46,174.61,-0.56,0.023,0.032,1.029,99245.29,27.62,0,0,0.0,0.0,0.0,0.0,0.96,-29.0
2025-11-09T20:04:08.760673,609,-1.34,1.83,202.44,174.44,-1.67,0.023,0.031,1.023,99247.26,27.55,0,0,0.0,0.0,0.0,0.0,0.96,-31.0
2025-11-09T20:04:08.858965,610,-1.34,1.83,202.43,174.6,1.57,0.024,0.033,1.027,99245.41,27.57,0,0,0.0,0.0,0.0,0.0,0.96,-29.0
2025-11-09T20:04:08.961320,611,-1.34,1.83,202.43,174.54,-0.6,0.024,0.032,1.028,99246.11,27.62,0,0,0.0,0.0,0.0,0.0,0.96,-29.0
2025-11-09T20:04:09.059749,612,-1.34,1.83,202.42,174.73,1.91,0.026,0.039,1.026,99243.86,27.54,0,0,0.0,0.0,0.0,0.0,0.96,-29.0
2025-11-09T20:04:09.162476,613,-1.34,1.83,202.41,174.85,1.19,0.024,0.034,1.028,99242.45,27.59,0,0,0.0,0.0,0.0,0.0,0.96,-28.0
2025-11-09T20:04:09.260210,614,-1.34,1.83,202.4,174.98,1.31,0.026,0.034,1.027,99240.91,27.58,0,0,0.0,0.0,0.0,0.0,0.96,-29.0
2025-11-09T20:04:09.362374,615,-1.34,1.83,202.4,175.01,0.33,0.023,0.034,1.027,99240.52,27.56,0,0,0.0,0.0,0.0,0.0,0.96,-31.0
2025-11-09T20:04:09.460966,616,-1.34,1.83,202.39,175.03,0.15,0.023,0.032,1.029,99240.34,27.58,0,0,0.0,0.0,0.0,0.0,0.96,-29.0
2025-11-09T20:04:09.563103,617,-1.34,1.83,202.4,174.85,-1.74,0.023,0.032,1.029,99242.4,27.6,0,0,0.0,0.0,0.0,0.0,0.96,-29.0
2025-11-09T20:04:09.661955,618,-1.34,1.83,202.4,174.76,-0.92,0.023,0.032,1.027,99243.48,27.59,0,0,0.0,0.0,0.0,0.0,0.96,-29.0
2025-11-09T20:04:09.760065,619,-1.34,1.83,202.41,175.0,2.37,0.023,0.031,1.025,99240.68,27.53,0,0,0.0,0.0,0.0,0.0,0.96,-29.0
2025-11-09T20:04:09.862463,620,-1.34,1.83,202.42,174.82,-1.82,0.023,0.031,1.026,99242.83,27.55,0,0,0.0,0.0,0.0,0.0,0.96,-31.0
2025-11-09T20:04:09.960650,621,-1.34,1.83,202.42,174.88,0.66,0.023,0.034,1.026,99242.05,27.58,0,0,0.0,0.0,0.0,0.0,0.96,-29.0
2025-11-09T20:04:10.062965,622,-1.34,1.83,202.42,174.85,-0.28,0.022,0.031,1.028,99242.38,27.59,0,0,0.0,0.0,0.0,0.0,0.96,-31.0
2025-11-09T20:04:10.161361,623,-1.34,1.83,202.4,174.91,0.58,0.023,0.031,1.028,99241.69,27.58,0,0,0.0,0.0,0.0,0.0,0.96,-29.0
2025-11-09T20:04:10.260203,624,-1.34,1.83,202.41,175.0,0.93,0.024,0.033,1.027,99240.59,27.62,0,0,0.0,0.0,0.0,0.0,0.96,-29.0
2025-11-09T20:04:10.361952,625,-1.34,1.82,202.39,174.91,-0.93,0.023,0.031,1.03,99241.69,27.59,0,0,0.0,0.0,0.0,0.0,0.96,-29.0
2025-11-09T20:04:10.464021,626,-1.34,1.82,202.39,174.89,-0.21,0.023,0.033,1.029,99241.94,27.61,0,0,0.0,0.0,0.0,0.0,0.96,-29.0
2025-11-09T20:04:10.562642,627,-1.34,1.82,202.37,174.82,-0.68,0.022,0.033,1.027,99242.73,27.56,0,0,0.0,0.0,0.0,0.0,0.96,-29.0
2025-11-09T20:04:10.661077,628,-1.34,1.82,202.36,174.7,-1.26,0.023,0.031,1.029,99244.23,27.55,0,0,0.0,0.0,0.0,0.0,0.96,-29.0
2025-11-09T20:04:10.759406,629,-1.34,1.82,202.36,174.75,0.48,0.022,0.031,1.025,99243.66,27.57,0,0,0.0,0.0,0.0,0.0,0.96,-31.0
2025-11-09T20:04:10.862026,630,-1.34,1.82,202.38,174.71,-0.34,0.022,0.031,1.026,99244.05,27.54,0,0,0.0,0.0,0.0,0.0,0.96,-29.0
2025-11-09T20:04:10.960021,631,-1.34,1.82,202.38,174.9,1.84,0.022,0.032,1.027,99241.88,27.55,0,0,0.0,0.0,0.0,0.0,0.96,-29.0
2025-11-09T20:04:11.062525,632,-1.34,1.82,202.39,174.96,0.63,0.023,0.032,1.027,99241.14,27.53,0,0,0.0,0.0,0.0,0.0,0.96,-29.0
2025-11-09T20:04:11.160642,633,-1.34,1.82,202.39,174.99,0.32,0.024,0.032,1.027,99240.77,27.56,0,0,0.0,0.0,0.0,0.0,0.96,-29.0
2025-11-09T20:04:11.263024,634,-1.34,1.82,202.4,174.8,-1.94,0.023,0.033,1.028,99243.05,27.63,0,0,0.0,0.0,0.0,0.0,0.96,-31.0
2025-11-09T20:04:11.361535,635,-1.34,1.82,202.4,175.06,2.61,0.022,0.032,1.029,99239.97,27.59,0,0,0.0,0.0,0.0,0.0,0.96,-31.0
2025-11-09T20:04:11.463570,636,-1.34,1.82,202.39,174.91,-1.52,0.025,0.033,1.027,99241.77,27.55,0,0,0.0,0.0,0.0,0.0,0.96,-31.0
2025-11-09T20:04:11.562031,637,-1.34,1.82,202.39,174.9,-0.1,0.024,0.032,1.027,99241.88,27.62,0,0,0.0,0.0,0.0,0.0,0.96,-31.0
2025-11-09T20:04:11.660412,638,-1.34,1.82,202.38,174.98,0.87,0.024,0.031,1.027,99240.85,27.56,0,0,0.0,0.0,0.0,0.0,0.96,-31.0
2025-11-09T20:04:11.762781,639,-1.34,1.82,202.4,174.93,-0.56,0.023,0.033,1.023,99241.52,27.53,0,0,0.0,0.0,0.0,0.0,0.96,-32.0
2025-11-09T20:04:11.861170,640,-1.34,1.82,202.41,174.75,-1.76,0.023,0.032,1.027,99243.59,27.52,0,0,0.0,0.0,0.0,0.0,0.96,-31.0
2025-11-09T20:04:11.963297,641,-1.34,1.82,202.41,174.64,-1.07,0.023,0.034,1.027,99244.86,27.53,0,0,0.0,0.0,0.0,0.0,0.96,-32.0
2025-11-09T20:04:12.061621,642,-1.34,1.83,202.43,174.84,1.96,0.024,0.032,1.028,99242.55,27.59,0,0,0.0,0.0,0.0,0.0,0.96,-28.0
2025-11-09T20:04:12.164147,643,-1.34,1.82,202.42,174.65,-1.91,0.022,0.033,1.029,99244.8,27.55,0,0,0.0,0.0,0.0,0.0,0.96,-31.0
2025-11-09T20:04:12.262330,644,-1.33,1.82,202.4,174.65,0.0,0.025,0.033,1.028,99244.8,27.6,0,0,0.0,0.0,0.0,0.0,0.96,-29.0
2025-11-09T20:04:12.361230,645,-1.33,1.82,202.39,174.7,0.49,0.023,0.034,1.029,99244.23,27.59,0,0,0.0,0.0,0.0,0.0,0.96,-31.0
2025-11-09T20:04:12.462818,646,-1.33,1.82,202.39,174.71,0.16,0.023,0.032,1.028,99244.03,27.58,0,0,0.0,0.0,0.0,0.0,0.96,-29.0
2025-11-09T20:04:12.561636,647,-1.33,1.82,202.4,174.57,-1.43,0.022,0.031,1.028,99245.72,27.6,0,0,0.0,0.0,0.0,0.0,0.96,-29.0
2025-11-09T20:04:12.663480,648,-1.34,1.83,202.41,174.61,0.37,0.025,0.032,1.029,99245.29,27.62,0,0,0.0,0.0,0.0,0.0,0.96,-31.0
2025-11-09T20:04:12.762066,649,-1.34,1.83,202.43,174.49,-1.16,0.023,0.032,1.024,99246.66,27.54,0,0,0.0,0.0,0.0,0.0,0.96,-31.0
2025-11-09T20:04:12.860499,650,-1.34,1.83,202.44,174.63,1.43,0.023,0.032,1.026,99244.97,27.54,0,0,0.0,0.0,0.0,0.0,0.96,-32.0
2025-11-09T20:04:12.962871,651,-1.34,1.83,202.44,174.61,-0.19,0.023,0.034,1.025,99245.2,27.54,0,0,0.0,0.0,0.0,0.0,0.96,-31.0
2025-11-09T20:04:13.061301,652,-1.34,1.83,202.46,174.79,1.72,0.023,0.031,1.028,99243.17,27.58,0,0,0.0,0.0,0.0,0.0,0.96,-29.0
2025-11-09T20:04:13.163832,653,-1.34,1.83,202.46,174.65,-1.35,0.023,0.033,1.028,99244.77,27.6,0,0,0.0,0.0,0.0,0.0,0.96,-31.0
2025-11-09T20:04:13.262264,654,-1.34,1.83,202.45,174.75,0.94,0.022,0.032,1.027,99243.66,27.54,0,0,0.0,0.0,0.0,0.0,0.96,-29.0
2025-11-09T20:04:13.364441,655,-1.34,1.83,202.44,174.73,-0.14,0.023,0.032,1.029,99243.83,27.54,0,0,0.0,0.0,0.0,0.0,0.96,-31.0
2025-11-09T20:04:13.464006,656,-1.34,1.83,202.44,174.69,-0.43,0.023,0.032,1.029,99244.34,27.61,0,0,0.0,0.0,0.0,0.0,0.96,-29.0
2025-11-09T20:04:13.560826,657,-1.33,1.82,202.42,174.73,0.43,0.024,0.03,1.03,99243.83,27.61,0,0,0.0,0.0,0.0,0.0,0.96,-29.0
2025-11-09T20:04:13.663004,658,-1.33,1.82,202.4,174.77,0.36,0.022,0.034,1.028,99243.4,27.59,0,0,0.0,0.0,0.0,0.0,0.96,-28.0
2025-11-09T20:04:13.761701,659,-1.33,1.82,202.38,174.88,1.16,0.022,0.031,1.025,99242.03,27.53,0,0,0.0,0.0,0.0,0.0,0.96,-28.0
2025-11-09T20:04:13.863830,660,-1.33,1.82,202.36,174.75,-1.3,0.024,0.031,1.026,99243.56,27.55,0,0,0.0,0.0,0.0,0.0,0.96,-29.0
2025-11-09T20:04:13.962266,661,-1.33,1.81,202.35,174.56,-1.96,0.024,0.033,1.029,99245.88,27.63,0,0,0.0,0.0,0.0,0.0,0.96,-31.0
2025-11-09T20:04:14.060676,662,-1.33,1.81,202.35,174.62,0.67,0.023,0.033,1.027,99245.09,27.57,0,0,0.0,0.0,0.0,0.0,0.96,-29.0
2025-11-09T20:04:14.162703,663,-1.33,1.82,202.37,174.85,2.3,0.023,0.033,1.027,99242.38,27.6,0,0,0.0,0.0,0.0,0.0,0.96,-29.0
2025-11-09T20:04:14.265028,664,-1.33,1.82,202.37,174.67,-1.86,0.022,0.035,1.028,99244.57,27.61,0,0,0.0,0.0,0.0,0.0,0.96,-31.0
2025-11-09T20:04:14.363308,665,-1.33,1.82,202.38,174.8,1.28,0.021,0.034,1.03,99243.06,27.62,0,0,0.0,0.0,0.0,0.0,0.96,-29.0
2025-11-09T20:04:14.462416,666,-1.33,1.82,202.4,174.63,-1.64,0.023,0.033,1.031,99245.0,27.58,0,0,0.0,0.0,0.0,0.0,0.96,-29.0
2025-11-09T20:04:14.560946,667,-1.33,1.82,202.39,174.82,1.93,0.023,0.033,1.029,99242.72,27.6,0,0,0.0,0.0,0.0,0.0,0.96,-31.0
2025-11-09T20:04:14.662539,668,-1.33,1.82,202.4,174.86,0.37,0.022,0.031,1.029,99242.28,27.61,0,0,0.0,0.0,0.0,0.0,0.96,-31.0
2025-11-09T20:04:14.764743,669,-1.33,1.82,202.41,174.86,-0.03,0.022,0.033,1.024,99242.31,27.53,0,0,0.0,0.0,0.0,0.0,0.96,-31.0
2025-11-09T20:04:14.863376,670,-1.33,1.82,202.41,174.57,-2.94,0.024,0.033,1.026,99245.77,27.59,0,0,0.0,0.0,0.0,0.0,0.96,-31.0
2025-11-09T20:04:14.961756,671,-1.33,1.82,202.42,174.91,3.46,0.024,0.033,1.028,99241.69,27.62,0,0,0.0,0.0,0.0,0.0,0.96,-29.0
2025-11-09T20:04:15.063982,672,-1.33,1.82,202.41,174.73,-1.87,0.021,0.031,1.028,99243.89,27.61,0,0,0.0,0.0,0.0,0.0,0.96,-29.0
2025-11-09T20:04:15.162414,673,-1.33,1.82,202.41,174.82,0.93,0.024,0.031,1.027,99242.8,27.58,0,0,0.0,0.0,0.0,0.0,0.96,-31.0
2025-11-09T20:04:15.264506,674,-1.33,1.82,202.4,174.77,-0.43,0.024,0.032,1.03,99243.31,27.6,0,0,0.0,0.0,0.0,0.0,0.96,-31.0
2025-11-09T20:04:15.362939,675,-1.33,1.82,202.4,174.73,-0.49,0.023,0.032,1.029,99243.89,27.63,0,0,0.0,0.0,0.0,0.0,0.96,-29.0
2025-11-09T20:04:15.461577,676,-1.33,1.82,202.39,174.8,0.78,0.023,0.031,1.029,99242.97,27.59,0,0,0.0,0.0,0.0,0.0,0.96,-31.0
2025-11-09T20:04:15.563705,677,-1.33,1.82,202.41,174.77,-0.29,0.024,0.032,1.029,99243.31,27.59,0,0,0.0,0.0,0.0,0.0,0.96,-31.0
2025-11-09T20:04:15.662130,678,-1.33,1.82,202.41,174.71,-0.63,0.024,0.033,1.029,99244.05,27.63,0,0,0.0,0.0,0.0,0.0,0.96,-29.0
2025-11-09T20:04:15.764178,679,-1.33,1.82,202.41,174.82,1.09,0.023,0.031,1.024,99242.77,27.56,0,0,0.0,0.0,0.0,0.0,0.96,-29.0
2025-11-09T20:04:15.862779,680,-1.33,1.82,202.42,174.81,-0.1,0.023,0.033,1.026,99242.89,27.54,0,0,0.0,0.0,0.0,0.0,0.96,-31.0
2025-11-09T20:04:15.964836,681,-1.33,1.82,202.41,174.59,-2.17,0.023,0.032,1.028,99245.45,27.53,0,0,0.0,0.0,0.0,0.0,0.96,-29.0
2025-11-09T20:04:16.063270,682,-1.33,1.82,202.41,174.75,1.57,0.024,0.033,1.027,99243.59,27.56,0,0,0.0,0.0,0.0,0.0,0.96,-29.0
2025-11-09T20:04:16.165478,683,-1.33,1.82,202.41,174.51,-2.37,0.023,0.033,1.029,99246.39,27.62,0,0,0.0,0.0,0.0,0.0,0.96,-29.0
2025-11-09T20:04:16.263935,684,-1.33,1.82,202.4,174.6,0.87,0.025,0.033,1.027,99245.37,27.6,0,0,0.0,0.0,0.0,0.0,0.96,-29.0
2025-11-09T20:04:16.362901,685,-1.33,1.82,202.39,174.58,-0.19,0.023,0.032,1.029,99245.59,27.59,0,0,0.0,0.0,0.0,0.0,0.96,-31.0
2025-11-09T20:04:16.460806,686,-1.33,1.82,202.38,174.78,2.0,0.024,0.035,1.028,99243.23,27.6,0,0,0.0,0.0,0.0,0.0,0.96,-31.0
2025-11-09T20:04:16.563185,687,-1.33,1.82,202.39,174.6,-1.87,0.024,0.032,1.028,99245.43,27.61,0,0,0.0,0.0,0.0,0.0,0.96,-31.0
2025-11-09T20:04:16.661901,688,-1.33,1.82,202.39,174.98,3.88,0.023,0.031,1.028,99240.85,27.61,0,0,0.0,0.0,0.0,0.0,0.96,-29.0
2025-11-09T20:04:16.763817,689,-1.33,1.82,202.38,174.67,-3.1,0.022,0.031,1.025,99244.52,27.54,0,0,0.0,0.0,0.0,0.0,0.96,-31.0
2025-11-09T20:04:16.862161,690,-1.33,1.82,202.37,174.87,1.98,0.022,0.032,1.027,99242.17,27.53,0,0,0.0,0.0,0.0,0.0,0.96,-29.0
2025-11-09T20:04:16.964405,691,-1.33,1.82,202.38,174.81,-0.63,0.024,0.032,1.027,99242.91,27.54,0,0,0.0,0.0,0.0,0.0,0.96,-31.0
2025-11-09T20:04:17.062930,692,-1.33,1.81,202.36,174.69,-1.21,0.023,0.033,1.028,99244.34,27.55,0,0,0.0,0.0,0.0,0.0,0.96,-29.0
2025-11-09T20:04:17.161180,693,-1.33,1.81,202.35,174.94,2.54,0.025,0.033,1.029,99241.34,27.59,0,0,0.0,0.0,0.0,0.0,0.96,-29.0
2025-11-09T20:04:17.263551,694,-1.33,1.81,202.34,174.82,-1.18,0.022,0.032,1.028,99242.73,27.56,0,0,0.0,0.0,0.0,0.0,0.96,-31.0
2025-11-09T20:04:17.361981,695,-1.33,1.81,202.35,174.97,1.48,0.023,0.033,1.027,99241.0,27.61,0,0,0.0,0.0,0.0,0.0,0.96,-29.0
2025-11-09T20:04:17.464218,696,-1.33,1.81,202.32,174.72,-2.55,0.024,0.033,1.029,99244.0,27.64,0,0,0.0,0.0,0.0,0.0,0.96,-31.0
2025-11-09T20:04:17.562419,697,-1.33,1.81,202.31,174.96,2.45,0.024,0.034,1.029,99241.11,27.63,0,0,0.0,0.0,0.0,0.0,0.96,-29.0
2025-11-09T20:04:17.664799,698,-1.33,1.81,202.31,174.95,-0.12,0.024,0.035,1.028,99241.25,27.62,0,0,0.0,0.0,0.0,0.0,0.96,-31.0
2025-11-09T20:04:17.763247,699,-1.33,1.81,202.33,175.03,0.84,0.021,0.033,1.024,99240.26,27.54,0,0,0.0,0.0,0.0,0.0,0.96,-29.0
2025-11-09T20:04:17.869389,700,-1.33,1.81,202.33,174.9,-1.38,0.023,0.034,1.028,99241.88,27.56,0,0,0.0,0.0,0.0,0.0,0.96,-32.0
2025-11-09T20:04:17.964762,701,-1.33,1.81,202.33,174.88,-0.19,0.023,0.032,1.027,99242.11,27.58,0,0,0.0,0.0,0.0,0.0,0.96,-31.0
2025-11-09T20:04:18.062391,702,-1.33,1.81,202.32,174.82,-0.54,0.023,0.033,1.027,99242.73,27.56,0,0,0.0,0.0,0.0,0.0,0.96,-31.0
2025-11-09T20:04:18.164341,703,-1.33,1.81,202.3,175.08,2.54,0.022,0.033,1.028,99239.74,27.61,0,0,0.0,0.0,0.0,0.0,0.96,-29.0
2025-11-09T20:04:18.263640,704,-1.33,1.81,202.32,174.85,-2.26,0.024,0.031,1.027,99242.4,27.59,0,0,0.0,0.0,0.0,0.0,0.96,-31.0
2025-11-09T20:04:18.361372,705,-1.33,1.81,202.31,175.06,2.06,0.022,0.033,1.028,99239.97,27.57,0,0,0.0,0.0,0.0,0.0,0.96,-29.0
2025-11-09T20:04:18.463605,706,-1.33,1.81,202.3,174.82,-2.35,0.023,0.031,1.028,99242.73,27.59,0,0,0.0,0.0,0.0,0.0,0.96,-31.0
2025-11-09T20:04:18.562044,707,-1.33,1.81,202.3,175.05,2.32,0.023,0.032,1.028,99240.0,27.61,0,0,0.0,0.0,0.0,0.0,0.96,-29.0
2025-11-09T20:04:18.664214,708,-1.33,1.81,202.3,174.79,-2.65,0.022,0.034,1.029,99243.14,27.59,0,0,0.0,0.0,0.0,0.0,0.96,-31.0
2025-11-09T20:04:18.762568,709,-1.33,1.81,202.3,174.86,0.73,0.022,0.032,1.025,99242.28,27.54,0,0,0.0,0.0,0.0,0.0,0.96,-29.0
2025-11-09T20:04:18.864619,710,-1.33,1.81,202.31,175.06,1.96,0.023,0.032,1.028,99239.97,27.57,0,0,0.0,0.0,0.0,0.0,0.96,-29.0
2025-11-09T20:04:18.963399,711,-1.33,1.81,202.3,174.86,-2.01,0.024,0.031,1.028,99242.34,27.55,0,0,0.0,0.0,0.0,0.0,0.96,-31.0
2025-11-09T20:04:19.061739,712,-1.33,1.81,202.29,175.09,2.31,0.023,0.034,1.028,99239.62,27.61,0,0,0.0,0.0,0.0,0.0,0.96,-29.0
2025-11-09T20:04:19.163933,713,-1.33,1.81,202.29,174.94,-1.43,0.023,0.033,1.029,99241.31,27.61,0,0,0.0,0.0,0.0,0.0,0.96,-31.0
2025-11-09T20:04:19.266136,714,-1.33,1.81,202.3,174.82,-1.19,0.024,0.034,1.029,99242.72,27.59,0,0,0.0,0.0,0.0,0.0,0.96,-32.0
2025-11-09T20:04:19.364585,715,-1.33,1.81,202.28,174.67,-1.59,0.024,0.033,1.027,99244.59,27.61,0,0,0.0,0.0,0.0,0.0,0.96,-31.0
2025-11-09T20:04:19.463136,716,-1.33,1.81,202.28,174.86,1.93,0.024,0.034,1.029,99242.31,27.61,0,0,0.0,0.0,0.0,0.0,0.96,-31.0
2025-11-09T20:04:19.565265,717,-1.33,1.81,202.28,174.61,-2.49,0.025,0.033,1.031,99245.25,27.61,0,0,0.0,0.0,0.0,0.0,0.96,-31.0
2025-11-09T20:04:19.663604,718,-1.33,1.81,202.26,174.87,2.58,0.025,0.034,1.028,99242.2,27.6,0,0,0.0,0.0,0.0,0.0,0.96,-29.0
2025-11-09T20:04:19.765855,719,-1.33,1.81,202.25,174.82,-0.45,0.024,0.033,1.026,99242.73,27.54,0,0,0.0,0.0,0.0,0.0,0.96,-29.0
2025-11-09T20:04:19.864862,720,-1.33,1.81,202.25,175.04,2.2,0.023,0.032,1.027,99240.14,27.6,0,0,0.0,0.0,0.0,0.0,0.96,-29.0
2025-11-09T20:04:19.962842,721,-1.33,1.81,202.25,174.82,-2.25,0.024,0.033,1.028,99242.8,27.57,0,0,0.0,0.0,0.0,0.0,0.96,-31.0
2025-11-09T20:04:20.064909,722,-1.33,1.81,202.25,174.74,-0.82,0.023,0.031,1.03,99243.77,27.62,0,0,0.0,0.0,0.0,0.0,0.96,-31.0
2025-11-09T20:04:20.163312,723,-1.33,1.81,202.24,174.77,0.38,0.024,0.032,1.028,99243.31,27.62,0,0,0.0,0.0,0.0,0.0,0.96,-29.0
2025-11-09T20:04:20.265637,724,-1.33,1.8,202.23,174.66,-1.09,0.023,0.033,1.029,99244.6,27.61,0,0,0.0,0.0,0.0,0.0,0.96,-31.0
2025-11-09T20:04:20.363987,725,-1.33,1.8,202.2,174.78,1.17,0.024,0.033,1.03,99243.23,27.63,0,0,0.0,0.0,0.0,0.0,0.96,-29.0
2025-11-09T20:04:20.462604,726,-1.33,1.8,202.21,174.82,0.41,0.024,0.032,1.03,99242.73,27.65,0,0,0.0,0.0,0.0,0.0,0.96,-31.0
2025-11-09T20:04:20.564846,727,-1.33,1.8,202.22,174.71,-1.16,0.024,0.032,1.027,99244.11,27.59,0,0,0.0,0.0,0.0,0.0,0.96,-31.0
2025-11-09T20:04:20.663437,728,-1.33,1.81,202.22,174.6,-1.06,0.022,0.032,1.029,99245.37,27.61,0,0,0.0,0.0,0.0,0.0,0.96,-31.0
2025-11-09T20:04:20.761797,729,-1.33,1.8,202.21,174.83,2.3,0.024,0.031,1.026,99242.66,27.57,0,0,0.0,0.0,0.0,0.0,0.96,-29.0
2025-11-09T20:04:20.864167,730,-1.33,1.8,202.19,174.75,-0.76,0.023,0.032,1.027,99243.55,27.55,0,0,0.0,0.0,0.0,0.0,0.96,-29.0
2025-11-09T20:04:20.962499,731,-1.33,1.8,202.2,174.83,0.78,0.023,0.031,1.028,99242.63,27.59,0,0,0.0,0.0,0.0,0.0,0.96,-29.0
2025-11-09T20:04:21.064813,732,-1.33,1.8,202.19,174.54,-2.9,0.022,0.033,1.029,99246.06,27.59,0,0,0.0,0.0,0.0,0.0,0.96,-29.0
2025-11-09T20:04:21.163813,733,-1.33,1.8,202.2,174.69,1.5,0.022,0.032,1.028,99244.29,27.64,0,0,0.0,0.0,0.0,0.0,0.96,-29.0
2025-11-09T20:04:21.265188,734,-1.33,1.81,202.23,174.7,0.1,0.023,0.032,1.028,99244.17,27.64,0,0,0.0,0.0,0.0,0.0,0.96,-29.0
2025-11-09T20:04:21.363907,735,-1.33,1.81,202.23,174.67,-0.29,0.023,0.033,1.028,99244.52,27.63,0,0,0.0,0.0,0.0,0.0,0.96,-29.0
2025-11-09T20:04:21.462349,736,-1.33,1.81,202.23,174.74,0.65,0.021,0.033,1.029,99243.74,27.58,0,0,0.0,0.0,0.0,0.0,0.96,-28.0
2025-11-09T20:04:21.564337,737,-1.33,1.82,202.28,174.83,0.94,0.024,0.032,1.029,99242.63,27.62,0,0,0.0,0.0,0.0,0.0,0.96,-29.0
2025-11-09T20:04:21.666653,738,-1.33,1.82,202.3,174.53,-2.98,0.022,0.032,1.029,99246.15,27.62,0,0,0.0,0.0,0.0,0.0,0.96,-29.0
2025-11-09T20:04:21.764729,739,-1.33,1.82,202.31,174.62,0.87,0.023,0.032,1.025,99245.11,27.55,0,0,0.0,0.0,0.0,0.0,0.96,-28.0
2025-11-09T20:04:21.863615,740,-1.33,1.82,202.31,174.53,-0.87,0.023,0.032,1.028,99246.15,27.56,0,0,0.0,0.0,0.0,0.0,0.96,-29.0
2025-11-09T20:04:21.965229,741,-1.33,1.82,202.32,174.58,0.48,0.023,0.033,1.029,99245.58,27.56,0,0,0.0,0.0,0.0,0.0,0.96,-29.0
2025-11-09T20:04:22.063922,742,-1.33,1.82,202.33,174.67,0.87,0.025,0.031,1.027,99244.55,27.55,0,0,0.0,0.0,0.0,0.0,0.96,-28.0
2025-11-09T20:04:22.166253,743,-1.33,1.82,202.33,174.58,-0.91,0.022,0.032,1.03,99245.62,27.58,0,0,0.0,0.0,0.0,0.0,0.96,-29.0
2025-11-09T20:04:22.264909,744,-1.34,1.82,202.34,174.55,-0.25,0.024,0.034,1.028,99245.92,27.56,0,0,0.0,0.0,0.0,0.0,0.96,-29.0
2025-11-09T20:04:22.363314,745,-1.34,1.82,202.35,174.59,0.4,0.024,0.036,1.031,99245.45,27.61,0,0,0.0,0.0,0.0,0.0,0.96,-28.0
2025-11-09T20:04:22.465340,746,-1.34,1.82,202.35,174.75,1.52,0.023,0.033,1.029,99243.66,27.61,0,0,0.0,0.0,0.0,0.0,0.96,-28.0
2025-11-09T20:04:22.564209,747,-1.34,1.82,202.36,174.58,-1.67,0.023,0.031,1.029,99245.62,27.59,0,0,0.0,0.0,0.0,0.0,0.96,-27.0
2025-11-09T20:04:22.662536,748,-1.34,1.83,202.38,174.67,0.94,0.023,0.033,1.03,99244.52,27.61,0,0,0.0,0.0,0.0,0.0,0.96,-26.0
2025-11-09T20:04:22.764790,749,-1.34,1.83,202.39,174.59,-0.82,0.024,0.032,1.025,99245.48,27.54,0,0,0.0,0.0,0.0,0.0,0.96,-28.0
2025-11-09T20:04:22.863157,750,-1.34,1.83,202.4,174.66,0.64,0.022,0.032,1.028,99244.72,27.59,0,0,0.0,0.0,0.0,0.0,0.96,-28.0
2025-11-09T20:04:22.965131,751,-1.34,1.83,202.41,174.4,-2.58,0.022,0.033,1.029,99247.77,27.61,0,0,0.0,0.0,0.0,0.0,0.96,-27.0
2025-11-09T20:04:23.063536,752,-1.34,1.83,202.41,174.6,2.02,0.023,0.033,1.029,99245.38,27.59,0,0,0.0,0.0,0.0,0.0,0.96,-28.0
2025-11-09T20:04:23.165592,753,-1.34,1.83,202.42,174.69,0.93,0.023,0.033,1.027,99244.28,27.64,0,0,0.0,0.0,0.0,0.0,0.96,-28.0
2025-11-09T20:04:23.263980,754,-1.34,1.83,202.43,174.73,0.36,0.023,0.033,1.029,99243.86,27.61,0,0,0.0,0.0,0.0,0.0,0.96,-26.0
2025-11-09T20:04:23.366294,755,-1.34,1.83,202.43,174.56,-1.67,0.024,0.034,1.031,99245.83,27.61,0,0,0.0,0.0,0.0,0.0,0.96,-27.0
2025-11-09T20:04:23.464887,756,-1.34,1.84,202.44,174.56,-0.06,0.024,0.034,1.028,99245.89,27.57,0,0,0.0,0.0,0.0,0.0,0.96,-28.0
2025-11-09T20:04:23.563227,757,-1.34,1.84,202.45,174.61,0.51,0.023,0.035,1.03,99245.29,27.63,0,0,0.0,0.0,0.0,0.0,0.96,-27.0
2025-11-09T20:04:23.665129,758,-1.34,1.84,202.45,174.71,1.02,0.024,0.033,1.029,99244.09,27.66,0,0,0.0,0.0,0.0,0.0,0.96,-28.0
2025-11-09T20:04:23.764035,759,-1.34,1.84,202.47,174.74,0.29,0.023,0.031,1.025,99243.74,27.54,0,0,0.0,0.0,0.0,0.0,0.96,-28.0
2025-11-09T20:04:23.865861,760,-1.34,1.84,202.48,174.78,0.41,0.023,0.034,1.027,99243.26,27.57,0,0,0.0,0.0,0.0,0.0,0.96,-28.0
2025-11-09T20:04:23.964833,761,-1.34,1.84,202.49,174.71,-0.66,0.024,0.032,1.026,99244.03,27.54,0,0,0.0,0.0,0.0,0.0,0.96,-28.0
2025-11-09T20:04:24.063239,762,-1.34,1.84,202.49,174.75,0.39,0.023,0.032,1.028,99243.57,27.58,0,0,0.0,0.0,0.0,0.0,0.96,-28.0
2025-11-09T20:04:24.165211,763,-1.34,1.84,202.49,174.95,1.95,0.023,0.034,1.028,99241.27,27.58,0,0,0.0,0.0,0.0,0.0,0.96,-28.0
2025-11-09T20:04:24.267392,764,-1.34,1.84,202.5,174.79,-1.53,0.023,0.034,1.028,99243.08,27.64,0,0,0.0,0.0,0.0,0.0,0.96,-28.0
2025-11-09T20:04:24.365946,765,-1.34,1.84,202.48,174.71,-0.88,0.023,0.033,1.029,99244.12,27.61,0,0,0.0,0.0,0.0,0.0,0.96,-28.0
2025-11-09T20:04:24.464382,766,-1.34,1.84,202.5,174.75,0.46,0.023,0.033,1.03,99243.57,27.61,0,0,0.0,0.0,0.0,0.0,0.96,-28.0
2025-11-09T20:04:24.562993,767,-1.34,1.84,202.49,174.82,0.65,0.024,0.032,1.028,99242.8,27.58,0,0,0.0,0.0,0.0,0.0,0.96,-28.0
2025-11-09T20:04:24.664984,768,-1.34,1.83,202.48,174.79,-0.24,0.022,0.031,1.031,99243.08,27.6,0,0,0.0,0.0,0.0,0.0,0.96,-29.0
2025-11-09T20:04:24.763449,769,-1.34,1.83,202.49,175.01,2.17,0.024,0.047,1.018,99240.52,27.53,0,0,0.0,0.0,0.0,0.0,0.96,-27.0
2025-11-09T20:04:24.865592,770,-1.34,1.83,202.5,174.82,-1.96,0.021,0.024,1.028,99242.83,27.61,0,0,0.0,0.0,0.0,0.0,0.96,-28.0
2025-11-09T20:04:24.963832,771,-1.34,1.84,202.52,175.02,2.06,0.023,0.029,1.023,99240.41,27.59,0,0,0.0,0.0,0.0,0.0,0.96,-28.0
2025-11-09T20:04:25.066101,772,-1.34,1.84,202.52,174.91,-1.11,0.022,0.029,1.028,99241.71,27.59,0,0,0.0,0.0,0.0,0.0,0.96,-28.0
2025-11-09T20:04:25.164775,773,-1.34,1.84,202.53,174.95,0.43,0.023,0.032,1.028,99241.2,27.59,0,0,0.0,0.0,0.0,0.0,0.96,-28.0
2025-11-09T20:04:25.263384,774,-1.34,1.84,202.55,174.98,0.25,0.023,0.035,1.029,99240.91,27.61,0,0,0.0,0.0,0.0,0.0,0.96,-28.0
2025-11-09T20:04:25.365488,775,-1.34,1.84,202.54,175.08,1.02,0.024,0.033,1.028,99239.71,27.61,0,0,0.0,0.0,0.0,0.0,0.96,-28.0
2025-11-09T20:04:25.467524,776,-1.34,1.84,202.54,174.85,-2.29,0.024,0.033,1.028,99242.41,27.65,0,0,0.0,0.0,0.0,0.0,0.96,-28.0
2025-11-09T20:04:25.565831,777,-1.34,1.84,202.54,174.91,0.58,0.022,0.032,1.028,99241.72,27.64,0,0,0.0,0.0,0.0,0.0,0.96,-28.0
2025-11-09T20:04:25.664613,778,-1.34,1.83,202.53,174.92,0.15,0.024,0.033,1.03,99241.55,27.64,0,0,0.0,0.0,0.0,0.0,0.96,-28.0
2025-11-09T20:04:25.766826,779,-1.34,1.83,202.53,174.89,-0.34,0.023,0.034,1.025,99241.95,27.56,0,0,0.0,0.0,0.0,0.0,0.96,-29.0
2025-11-09T20:04:25.865068,780,-1.34,1.84,202.54,175.1,2.13,0.025,0.033,1.028,99239.43,27.59,0,0,0.0,0.0,0.0,0.0,0.96,-28.0
2025-11-09T20:04:25.967218,781,-1.34,1.84,202.55,174.83,-2.71,0.023,0.034,1.027,99242.63,27.61,0,0,0.0,0.0,0.0,0.0,0.96,-28.0
2025-11-09T20:04:26.065557,782,-1.34,1.84,202.55,175.05,2.15,0.022,0.033,1.029,99240.09,27.62,0,0,0.0,0.0,0.0,0.0,0.96,-28.0
2025-11-09T20:04:26.167561,783,-1.34,1.84,202.55,174.92,-1.3,0.024,0.032,1.029,99241.62,27.59,0,0,0.0,0.0,0.0,0.0,0.96,-28.0
2025-11-09T20:04:26.266270,784,-1.34,1.84,202.56,174.86,-0.61,0.022,0.031,1.029,99242.34,27.59,0,0,0.0,0.0,0.0,0.0,0.96,-28.0
2025-11-09T20:04:26.364760,785,-1.34,1.84,202.57,174.69,-1.62,0.023,0.031,1.028,99244.27,27.6,0,0,0.0,0.0,0.0,0.0,0.96,-28.0
2025-11-09T20:04:26.463222,786,-1.34,1.84,202.58,174.95,2.59,0.021,0.032,1.029,99241.2,27.62,0,0,0.0,0.0,0.0,0.0,0.96,-27.0
2025-11-09T20:04:26.565803,787,-1.34,1.84,202.59,174.81,-1.45,0.024,0.032,1.03,99242.91,27.59,0,0,0.0,0.0,0.0,0.0,0.96,-28.0
2025-11-09T20:04:26.664078,788,-1.34,1.84,202.59,174.83,0.22,0.024,0.032,1.029,99242.66,27.64,0,0,0.0,0.0,0.0,0.0,0.96,-28.0
2025-11-09T20:04:26.766002,789,-1.35,1.84,202.6,174.87,0.44,0.023,0.032,1.025,99242.14,27.54,0,0,0.0,0.0,0.0,0.0,0.96,-28.0
2025-11-09T20:04:26.864882,790,-1.35,1.84,202.61,174.8,-0.78,0.023,0.032,1.028,99243.06,27.55,0,0,0.0,0.0,0.0,0.0,0.96,-28.0
2025-11-09T20:04:26.966632,791,-1.34,1.84,202.6,174.9,1.09,0.023,0.034,1.026,99241.77,27.58,0,0,0.0,0.0,0.0,0.0,0.96,-28.0
2025-11-09T20:04:27.065268,792,-1.34,1.84,202.61,174.9,0.0,0.023,0.033,1.029,99241.77,27.57,0,0,0.0,0.0,0.0,0.0,0.96,-28.0
2025-11-09T20:04:27.167437,793,-1.35,1.84,202.62,174.88,-0.28,0.023,0.034,1.03,99242.11,27.58,0,0,0.0,0.0,0.0,0.0,0.96,-28.0
2025-11-09T20:04:27.265782,794,-1.35,1.84,202.64,174.97,0.94,0.023,0.034,1.028,99241.0,27.61,0,0,0.0,0.0,0.0,0.0,0.96,-28.0
2025-11-09T20:04:27.368101,795,-1.35,1.84,202.65,174.79,-1.82,0.024,0.034,1.028,99243.15,27.61,0,0,0.0,0.0,0.0,0.0,0.96,-28.0
2025-11-09T20:04:27.466648,796,-1.35,1.84,202.64,174.68,-1.04,0.023,0.033,1.029,99244.38,27.59,0,0,0.0,0.0,0.0,0.0,0.96,-28.0
2025-11-09T20:04:27.565234,797,-1.35,1.84,202.64,174.67,-0.18,0.023,0.033,1.031,99244.58,27.63,0,0,0.0,0.0,0.0,0.0,0.96,-29.0
2025-11-09T20:04:27.667083,798,-1.35,1.84,202.64,174.62,-0.45,0.023,0.032,1.028,99245.11,27.62,0,0,0.0,0.0,0.0,0.0,0.96,-28.0
2025-11-09T20:04:27.765444,799,-1.34,1.84,202.63,174.72,0.99,0.024,0.033,1.026,99243.95,27.57,0,0,0.0,0.0,0.0,0.0,0.96,-28.0
2025-11-09T20:04:27.863936,800,-1.34,1.84,202.63,174.82,0.97,0.024,0.032,1.027,99242.8,27.58,0,0,0.0,0.0,0.0,0.0,0.96,-28.0
2025-11-09T20:04:27.966203,801,-1.34,1.84,202.63,174.75,-0.68,0.023,0.033,1.03,99243.6,27.59,0,0,0.0,0.0,0.0,0.0,0.96,-28.0
2025-11-09T20:04:28.068403,802,-1.34,1.84,202.65,174.56,-1.86,0.025,0.032,1.028,99245.8,27.61,0,0,0.0,0.0,0.0,0.0,0.96,-28.0
2025-11-09T20:04:28.166775,803,-1.34,1.84,202.66,174.7,1.32,0.023,0.031,1.029,99244.23,27.64,0,0,0.0,0.0,0.0,0.0,0.96,-28.0
2025-11-09T20:04:28.265458,804,-1.34,1.84,202.67,174.63,-0.68,0.022,0.033,1.029,99245.03,27.63,0,0,0.0,0.0,0.0,0.0,0.96,-28.0
2025-11-09T20:04:28.363644,805,-1.34,1.85,202.68,174.74,1.11,0.022,0.036,1.028,99243.72,27.57,0,0,0.0,0.0,0.0,0.0,0.96,-28.0
2025-11-09T20:04:28.466056,806,-1.34,1.85,202.7,174.63,-1.06,0.024,0.034,1.031,99244.97,27.58,0,0,0.0,0.0,0.0,0.0,0.96,-27.0
2025-11-09T20:04:28.564244,807,-1.34,1.85,202.7,174.74,1.06,0.022,0.035,1.03,99243.72,27.6,0,0,0.0,0.0,0.0,0.0,0.96,-28.0
2025-11-09T20:04:28.666468,808,-1.34,1.85,202.68,174.86,1.16,0.023,0.033,1.03,99242.34,27.66,0,0,0.0,0.0,0.0,0.0,0.96,-28.0
2025-11-09T20:04:28.765345,809,-1.34,1.85,202.69,174.8,-0.58,0.024,0.031,1.026,99243.03,27.54,0,0,0.0,0.0,0.0,0.0,0.96,-28.0
2025-11-09T20:04:28.867187,810,-1.34,1.85,202.7,174.74,-0.58,0.024,0.03,1.029,99243.72,27.59,0,0,0.0,0.0,0.0,0.0,0.96,-28.0
2025-11-09T20:04:28.965574,811,-1.34,1.85,202.7,174.84,1.02,0.023,0.032,1.029,99242.52,27.56,0,0,0.0,0.0,0.0,0.0,0.96,-29.0
2025-11-09T20:04:29.067566,812,-1.34,1.85,202.7,174.68,-1.6,0.023,0.033,1.028,99244.41,27.57,0,0,0.0,0.0,0.0,0.0,0.96,-28.0
2025-11-09T20:04:29.166124,813,-1.34,1.85,202.71,174.57,-1.11,0.022,0.031,1.028,99245.72,27.57,0,0,0.0,0.0,0.0,0.0,0.96,-28.0
2025-11-09T20:04:29.264597,814,-1.34,1.84,202.69,174.78,2.06,0.023,0.033,1.03,99243.3,27.61,0,0,0.0,0.0,0.0,0.0,0.96,-28.0
2025-11-09T20:04:29.366892,815,-1.34,1.84,202.69,174.51,-2.63,0.022,0.032,1.028,99246.41,27.62,0,0,0.0,0.0,0.0,0.0,0.96,-29.0
2025-11-09T20:04:29.465341,816,-1.34,1.84,202.69,174.75,2.34,0.023,0.033,1.029,99243.64,27.64,0,0,0.0,0.0,0.0,0.0,0.96,-28.0
2025-11-09T20:04:29.567661,817,-1.34,1.85,202.7,174.72,-0.31,0.024,0.032,1.028,99244.0,27.64,0,0,0.0,0.0,0.0,0.0,0.96,-27.0
2025-11-09T20:04:29.665889,818,-1.34,1.85,202.72,174.8,0.82,0.024,0.033,1.029,99243.03,27.6,0,0,0.0,0.0,0.0,0.0,0.96,-27.0
2025-11-09T20:04:29.767927,819,-1.34,1.85,202.72,174.76,-0.41,0.023,0.032,1.025,99243.52,27.55,0,0,0.0,0.0,0.0,0.0,0.96,-27.0
2025-11-09T20:04:29.866268,820,-1.34,1.85,202.75,174.88,1.21,0.024,0.033,1.028,99242.09,27.59,0,0,0.0,0.0,0.0,0.0,0.96,-27.0
2025-11-09T20:04:29.968805,821,-1.34,1.85,202.75,174.76,-1.14,0.022,0.034,1.027,99243.43,27.54,0,0,0.0,0.0,0.0,0.0,0.96,-29.0
2025-11-09T20:04:30.067461,822,-1.34,1.85,202.73,174.76,-0.07,0.023,0.032,1.029,99243.52,27.58,0,0,0.0,0.0,0.0,0.0,0.96,-28.0
2025-11-09T20:04:30.165922,823,-1.34,1.85,202.73,174.52,-2.33,0.024,0.033,1.028,99246.27,27.6,0,0,0.0,0.0,0.0,0.0,0.96,-28.0
2025-11-09T20:04:30.264411,824,-1.34,1.85,202.73,174.69,1.65,0.023,0.033,1.029,99244.32,27.6,0,0,0.0,0.0,0.0,0.0,0.96,-27.0
2025-11-09T20:04:30.366387,825,-1.34,1.85,202.73,174.86,1.67,0.022,0.032,1.028,99242.34,27.61,0,0,0.0,0.0,0.0,0.0,0.96,-28.0
2025-11-09T20:04:30.464991,826,-1.34,1.85,202.74,174.96,1.03,0.023,0.032,1.03,99241.12,27.57,0,0,0.0,0.0,0.0,0.0,0.96,-27.0
2025-11-09T20:04:30.566919,827,-1.34,1.84,202.73,174.81,-1.54,0.024,0.033,1.029,99242.95,27.57,0,0,0.0,0.0,0.0,0.0,0.96,-28.0
2025-11-09T20:04:30.665346,828,-1.34,1.84,202.72,174.87,0.68,0.021,0.031,1.03,99242.15,27.61,0,0,0.0,0.0,0.0,0.0,0.96,-27.0
2025-11-09T20:04:30.767369,829,-1.34,1.84,202.73,174.92,0.43,0.022,0.032,1.026,99241.63,27.56,0,0,0.0,0.0,0.0,0.0,0.96,-27.0
2025-11-09T20:04:30.866123,830,-1.34,1.84,202.75,174.86,-0.6,0.024,0.033,1.026,99242.34,27.59,0,0,0.0,0.0,0.0,0.0,0.96,-27.0
2025-11-09T20:04:30.964565,831,-1.34,1.84,202.76,174.92,0.68,0.023,0.033,1.028,99241.55,27.57,0,0,0.0,0.0,0.0,0.0,0.96,-27.0
2025-11-09T20:04:31.066924,832,-1.34,1.84,202.75,174.65,-2.76,0.023,0.033,1.028,99244.8,27.57,0,0,0.0,0.0,0.0,0.0,0.96,-28.0
2025-11-09T20:04:31.165093,833,-1.34,1.84,202.74,174.73,0.87,0.022,0.033,1.028,99243.78,27.54,0,0,0.0,0.0,0.0,0.0,0.96,-27.0
2025-11-09T20:04:31.267286,834,-1.34,1.84,202.74,174.79,0.59,0.024,0.031,1.029,99243.09,27.59,0,0,0.0,0.0,0.0,0.0,0.96,-28.0
2025-11-09T20:04:31.365741,835,-1.34,1.84,202.74,174.94,1.49,0.023,0.031,1.03,99241.32,27.58,0,0,0.0,0.0,0.0,0.0,0.96,-28.0
2025-11-09T20:04:31.468007,836,-1.34,1.84,202.74,174.64,-3.05,0.022,0.032,1.028,99244.92,27.58,0,0,0.0,0.0,0.0,0.0,0.96,-29.0
2025-11-09T20:04:31.566440,837,-1.34,1.84,202.75,174.83,1.89,0.023,0.033,1.029,99242.69,27.61,0,0,0.0,0.0,0.0,0.0,0.96,-28.0
2025-11-09T20:04:31.669271,838,-1.34,1.84,202.75,174.66,-1.72,0.023,0.033,1.031,99244.72,27.62,0,0,0.0,0.0,0.0,0.0,0.96,-28.0
2025-11-09T20:04:31.766886,839,-1.34,1.84,202.75,174.92,2.69,0.023,0.032,1.03,99241.55,27.61,0,0,0.0,0.0,0.0,0.0,0.96,-28.0
2025-11-09T20:04:31.869294,840,-1.34,1.84,202.75,174.74,-1.84,0.023,0.035,1.03,99243.72,27.65,0,0,0.0,0.0,0.0,0.0,0.96,-27.0
2025-11-09T20:04:31.967491,841,-1.34,1.84,202.76,174.95,2.1,0.024,0.031,1.029,99241.23,27.59,0,0,0.0,0.0,0.0,0.0,0.96,-28.0
2025-11-09T20:04:32.066248,842,-1.34,1.84,202.75,174.87,-0.77,0.024,0.032,1.03,99242.15,27.63,0,0,0.0,0.0,0.0,0.0,0.96,-28.0
2025-11-09T20:04:32.164511,843,-1.34,1.84,202.74,174.9,0.29,0.022,0.032,1.03,99241.8,27.63,0,0,0.0,0.0,0.0,0.0,0.96,-28.0
2025-11-09T20:04:32.266770,844,-1.33,1.84,202.74,174.85,-0.54,0.023,0.034,1.03,99242.44,27.62,0,0,0.0,0.0,0.0,0.0,0.96,-28.0
2025-11-09T20:04:32.365252,845,-1.33,1.83,202.72,174.91,0.58,0.024,0.032,1.03,99241.75,27.61,0,0,0.0,0.0,0.0,0.0,0.96,-28.0
2025-11-09T20:04:32.467645,846,-1.33,1.83,202.73,174.81,-0.99,0.022,0.033,1.031,99242.92,27.62,0,0,0.0,0.0,0.0,0.0,0.96,-28.0
2025-11-09T20:04:32.566163,847,-1.33,1.83,202.73,174.79,-0.21,0.023,0.032,1.029,99243.17,27.59,0,0,0.0,0.0,0.0,0.0,0.96,-28.0
2025-11-09T20:04:32.667966,848,-1.33,1.84,202.73,174.96,1.75,0.024,0.033,1.03,99241.09,27.64,0,0,0.0,0.0,0.0,0.0,0.96,-28.0
2025-11-09T20:04:32.766612,849,-1.33,1.83,202.73,174.96,0.03,0.022,0.032,1.029,99241.06,27.63,0,0,0.0,0.0,0.0,0.0,0.96,-27.0
2025-11-09T20:04:32.865145,850,-1.33,1.83,202.72,175.12,1.58,0.023,0.032,1.03,99239.2,27.62,0,0,0.0,0.0,0.0,0.0,0.96,-27.0
2025-11-09T20:04:32.967335,851,-1.33,1.83,202.7,174.95,-1.77,0.023,0.033,1.03,99241.29,27.64,0,0,0.0,0.0,0.0,0.0,0.96,-28.0
2025-11-09T20:04:33.065621,852,-1.33,1.83,202.7,175.14,1.91,0.023,0.032,1.029,99239.03,27.62,0,0,0.0,0.0,0.0,0.0,0.96,-28.0
2025-11-09T20:04:33.167769,853,-1.33,1.83,202.69,174.95,-1.91,0.023,0.033,1.028,99241.29,27.66,0,0,0.0,0.0,0.0,0.0,0.96,-28.0
2025-11-09T20:04:33.266199,854,-1.33,1.83,202.7,174.92,-0.27,0.022,0.031,1.029,99241.61,27.64,0,0,0.0,0.0,0.0,0.0,0.96,-28.0
2025-11-09T20:04:33.364490,855,-1.33,1.83,202.7,174.94,0.17,0.023,0.034,1.03,99241.41,27.62,0,0,0.0,0.0,0.0,0.0,0.96,-28.0
2025-11-09T20:04:33.469346,856,-1.33,1.83,202.68,174.91,-0.22,0.025,0.032,1.03,99241.66,27.66,0,0,0.0,0.0,0.0,0.0,0.96,-28.0
2025-11-09T20:04:33.568907,857,-1.33,1.83,202.68,174.78,-1.38,0.022,0.032,1.029,99243.3,27.61,0,0,0.0,0.0,0.0,0.0,0.96,-28.0
2025-11-09T20:04:33.667294,858,-1.33,1.83,202.68,174.87,0.89,0.025,0.034,1.03,99242.23,27.65,0,0,0.0,0.0,0.0,0.0,0.96,-28.0
2025-11-09T20:04:33.765828,859,-1.33,1.83,202.68,174.84,-0.29,0.024,0.033,1.031,99242.58,27.64,0,0,0.0,0.0,0.0,0.0,0.96,-28.0
2025-11-09T20:04:33.868042,860,-1.33,1.83,202.67,174.97,1.3,0.024,0.032,1.03,99241.03,27.64,0,0,0.0,0.0,0.0,0.0,0.96,-28.0
2025-11-09T20:04:33.966784,861,-1.33,1.83,202.68,174.95,-0.14,0.023,0.034,1.031,99241.2,27.64,0,0,0.0,0.0,0.0,0.0,0.96,-28.0
2025-11-09T20:04:34.068935,862,-1.33,1.83,202.66,174.95,-0.03,0.023,0.033,1.03,99241.23,27.63,0,0,0.0,0.0,0.0,0.0,0.96,-28.0
2025-11-09T20:04:34.167267,863,-1.33,1.83,202.66,175.27,3.23,0.024,0.034,1.031,99237.43,27.61,0,0,0.0,0.0,0.0,0.0,0.96,-27.0
2025-11-09T20:04:34.269433,864,-1.33,1.83,202.65,175.15,-1.24,0.022,0.031,1.03,99238.89,27.68,0,0,0.0,0.0,0.0,0.0,0.96,-29.0
2025-11-09T20:04:34.368036,865,-1.33,1.82,202.63,174.88,-2.64,0.023,0.032,1.03,99242.01,27.7,0,0,0.0,0.0,0.0,0.0,0.96,-29.0
2025-11-09T20:04:34.466662,866,-1.33,1.82,202.62,174.83,-0.55,0.024,0.033,1.031,99242.66,27.66,0,0,0.0,0.0,0.0,0.0,0.96,-28.0
2025-11-09T20:04:34.565239,867,-1.33,1.82,202.61,175.05,2.22,0.022,0.033,1.032,99240.03,27.63,0,0,0.0,0.0,0.0,0.0,0.96,-28.0
2025-11-09T20:04:34.667317,868,-1.33,1.82,202.6,174.87,-1.81,0.024,0.032,1.031,99242.17,27.63,0,0,0.0,0.0,0.0,0.0,0.96,-28.0
2025-11-09T20:04:34.765608,869,-1.33,1.82,202.6,175.07,1.99,0.023,0.033,1.03,99239.83,27.63,0,0,0.0,0.0,0.0,0.0,0.96,-28.0
2025-11-09T20:04:34.867673,870,-1.33,1.82,202.61,174.92,-1.53,0.024,0.033,1.03,99241.63,27.65,0,0,0.0,0.0,0.0,0.0,0.96,-28.0
2025-11-09T20:04:34.965910,871,-1.33,1.82,202.61,174.97,0.56,0.023,0.033,1.031,99240.98,27.62,0,0,0.0,0.0,0.0,0.0,0.96,-28.0
2025-11-09T20:04:35.068251,872,-1.32,1.82,202.59,174.84,-1.3,0.023,0.031,1.029,99242.52,27.64,0,0,0.0,0.0,0.0,0.0,0.96,-28.0
2025-11-09T20:04:35.166667,873,-1.32,1.82,202.59,175.14,3.0,0.024,0.031,1.033,99238.98,27.61,0,0,0.0,0.0,0.0,0.0,0.96,-28.0
2025-11-09T20:04:35.268735,874,-1.33,1.82,202.61,174.99,-1.53,0.024,0.034,1.029,99240.78,27.62,0,0,0.0,0.0,0.0,0.0,0.96,-28.0
2025-11-09T20:04:35.367404,875,-1.33,1.82,202.6,175.01,0.23,0.023,0.034,1.031,99240.52,27.66,0,0,0.0,0.0,0.0,0.0,0.96,-28.0
2025-11-09T20:04:35.465884,876,-1.33,1.82,202.59,175.19,1.74,0.024,0.032,1.031,99238.46,27.63,0,0,0.0,0.0,0.0,0.0,0.96,-28.0
2025-11-09T20:04:35.568187,877,-1.33,1.82,202.59,174.92,-2.64,0.025,0.032,1.031,99241.58,27.66,0,0,0.0,0.0,0.0,0.0,0.96,-28.0
2025-11-09T20:04:35.666769,878,-1.33,1.82,202.59,174.85,-0.71,0.023,0.031,1.029,99242.41,27.62,0,0,0.0,0.0,0.0,0.0,0.96,-28.0
2025-11-09T20:04:35.768511,879,-1.32,1.82,202.58,174.92,0.71,0.023,0.03,1.03,99241.58,27.63,0,0,0.0,0.0,0.0,0.0,0.96,-28.0
2025-11-09T20:04:35.867321,880,-1.33,1.82,202.6,174.91,-0.12,0.024,0.033,1.031,99241.72,27.62,0,0,0.0,0.0,0.0,0.0,0.96,-28.0
2025-11-09T20:04:35.969318,881,-1.32,1.82,202.6,174.81,-0.97,0.021,0.033,1.03,99242.86,27.64,0,0,0.0,0.0,0.0,0.0,0.96,-28.0
2025-11-09T20:04:36.067704,882,-1.32,1.82,202.61,174.96,1.52,0.023,0.034,1.03,99241.06,27.66,0,0,0.0,0.0,0.0,0.0,0.96,-27.0
2025-11-09T20:04:36.169795,883,-1.32,1.82,202.62,174.9,-0.62,0.023,0.033,1.03,99241.8,27.64,0,0,0.0,0.0,0.0,0.0,0.96,-28.0
2025-11-09T20:04:36.268330,884,-1.32,1.83,202.62,174.87,-0.37,0.022,0.031,1.029,99242.23,27.62,0,0,0.0,0.0,0.0,0.0,0.96,-28.0
2025-11-09T20:04:36.366889,885,-1.33,1.83,202.63,174.86,-0.09,0.024,0.032,1.03,99242.34,27.66,0,0,0.0,0.0,0.0,0.0,0.96,-28.0
2025-11-09T20:04:36.465390,886,-1.33,1.83,202.65,174.94,0.8,0.024,0.033,1.031,99241.41,27.62,0,0,0.0,0.0,0.0,0.0,0.96,-27.0
2025-11-09T20:04:36.567444,887,-1.33,1.83,202.66,174.72,-2.15,0.024,0.033,1.03,99243.95,27.64,0,0,0.0,0.0,0.0,0.0,0.96,-27.0
2025-11-09T20:04:36.665794,888,-1.33,1.83,202.65,174.98,2.62,0.023,0.033,1.028,99240.86,27.66,0,0,0.0,0.0,0.0,0.0,0.96,-27.0
2025-11-09T20:04:36.768094,889,-1.33,1.83,202.65,175.0,0.19,0.022,0.031,1.03,99240.63,27.64,0,0,0.0,0.0,0.0,0.0,0.96,-28.0
2025-11-09T20:04:36.866937,890,-1.33,1.83,202.64,175.0,-0.05,0.021,0.032,1.031,99240.69,27.66,0,0,0.0,0.0,0.0,0.0,0.96,-28.0
2025-11-09T20:04:36.969162,891,-1.33,1.83,202.64,174.93,-0.67,0.022,0.032,1.03,99241.48,27.66,0,0,0.0,0.0,0.0,0.0,0.96,-27.0
2025-11-09T20:04:37.067428,892,-1.33,1.83,202.64,174.88,-0.52,0.023,0.031,1.029,99242.09,27.65,0,0,0.0,0.0,0.0,0.0,0.96,-26.0
2025-11-09T20:04:37.165784,893,-1.33,1.83,202.65,174.91,0.37,0.023,0.033,1.03,99241.66,27.62,0,0,0.0,0.0,0.0,0.0,0.96,-26.0
2025-11-09T20:04:37.267752,894,-1.33,1.83,202.64,174.98,0.68,0.023,0.032,1.031,99240.86,27.61,0,0,0.0,0.0,0.0,0.0,0.96,-26.0
2025-11-09T20:04:37.369930,895,-1.33,1.83,202.63,174.88,-1.05,0.025,0.035,1.028,99242.09,27.65,0,0,0.0,0.0,0.0,0.0,0.96,-28.0
2025-11-09T20:04:37.468304,896,-1.33,1.83,202.66,174.64,-2.37,0.022,0.032,1.031,99244.89,27.6,0,0,0.0,0.0,0.0,0.0,0.96,-27.0
2025-11-09T20:04:37.567024,897,-1.33,1.83,202.63,174.71,0.65,0.024,0.031,1.03,99244.12,27.63,0,0,0.0,0.0,0.0,0.0,0.96,-28.0
2025-11-09T20:04:37.665600,898,-1.33,1.83,202.64,174.85,1.43,0.025,0.034,1.03,99242.44,27.62,0,0,0.0,0.0,0.0,0.0,0.96,-29.0
2025-11-09T20:04:37.767383,899,-1.33,1.83,202.65,174.88,0.36,0.022,0.034,1.03,99242.01,27.65,0,0,0.0,0.0,0.0,0.0,0.96,-29.0
2025-11-09T20:04:37.869562,900,-1.33,1.83,202.66,174.74,-1.42,0.023,0.032,1.03,99243.69,27.68,0,0,0.0,0.0,0.0,0.0,0.96,-29.0
2025-11-09T20:04:37.967925,901,-1.33,1.83,202.67,174.86,1.18,0.024,0.033,1.029,99242.3,27.66,0,0,0.0,0.0,0.0,0.0,0.96,-28.0
2025-11-09T20:04:38.066494,902,-1.33,1.84,202.67,174.89,0.28,0.024,0.033,1.03,99241.97,27.66,0,0,0.0,0.0,0.0,0.0,0.96,-27.0
2025-11-09T20:04:38.168474,903,-1.33,1.83,202.67,174.98,0.91,0.023,0.032,1.031,99240.89,27.66,0,0,0.0,0.0,0.0,0.0,0.96,-26.0
2025-11-09T20:04:38.267585,904,-1.33,1.83,202.65,174.8,-1.79,0.023,0.033,1.031,99243.01,27.61,0,0,0.0,0.0,0.0,0.0,0.96,-25.0
2025-11-09T20:04:38.365833,905,-1.33,1.83,202.66,175.02,2.2,0.023,0.032,1.03,99240.41,27.68,0,0,0.0,0.0,0.0,0.0,0.96,-27.0
2025-11-09T20:04:38.468161,906,-1.33,1.83,202.65,174.82,-2.01,0.024,0.032,1.03,99242.78,27.65,0,0,0.0,0.0,0.0,0.0,0.96,-27.0
2025-11-09T20:04:38.566521,907,-1.33,1.83,202.64,175.09,2.74,0.023,0.034,1.029,99239.55,27.65,0,0,0.0,0.0,0.0,0.0,0.96,-27.0
2025-11-09T20:04:38.668777,908,-1.33,1.83,202.63,174.85,-2.45,0.022,0.031,1.031,99242.44,27.66,0,0,0.0,0.0,0.0,0.0,0.96,-28.0
2025-11-09T20:04:38.766988,909,-1.33,1.83,202.61,174.92,0.73,0.022,0.033,1.03,99241.58,27.65,0,0,0.0,0.0,0.0,0.0,0.96,-27.0
2025-11-09T20:04:38.865395,910,-1.33,1.83,202.61,174.95,0.31,0.023,0.031,1.028,99241.2,27.59,0,0,0.0,0.0,0.0,0.0,0.96,-27.0
2025-11-09T20:04:38.967830,911,-1.33,1.82,202.59,174.88,-0.73,0.023,0.032,1.028,99242.06,27.64,0,0,0.0,0.0,0.0,0.0,0.96,-28.0
2025-11-09T20:04:39.065761,912,-1.33,1.82,202.57,175.01,1.31,0.022,0.033,1.03,99240.52,27.62,0,0,0.0,0.0,0.0,0.0,0.96,-27.0
2025-11-09T20:04:39.167936,913,-1.33,1.82,202.59,174.81,-2.06,0.023,0.034,1.031,99242.95,27.6,0,0,0.0,0.0,0.0,0.0,0.96,-27.0
2025-11-09T20:04:39.266764,914,-1.33,1.82,202.6,174.9,0.95,0.022,0.034,1.03,99241.83,27.64,0,0,0.0,0.0,0.0,0.0,0.96,-26.0
2025-11-09T20:04:39.368576,915,-1.33,1.83,202.62,174.72,-1.82,0.022,0.033,1.03,99243.98,27.6,0,0,0.0,0.0,0.0,0.0,0.96,-26.0
2025-11-09T20:04:39.466954,916,-1.33,1.83,202.61,174.96,2.39,0.023,0.032,1.029,99241.15,27.61,0,0,0.0,0.0,0.0,0.0,0.96,-27.0
2025-11-09T20:04:39.569315,917,-1.33,1.83,202.61,174.61,-3.48,0.023,0.033,1.031,99245.26,27.64,0,0,0.0,0.0,0.0,0.0,0.96,-28.0
2025-11-09T20:04:39.667663,918,-1.33,1.83,202.62,174.83,2.18,0.024,0.031,1.03,99242.69,27.63,0,0,0.0,0.0,0.0,0.0,0.96,-27.0
2025-11-09T20:04:39.769875,919,-1.33,1.83,202.62,174.66,-1.72,0.024,0.037,1.025,99244.72,27.63,0,0,0.0,0.0,0.0,0.0,0.96,-27.0
2025-11-09T20:04:39.868401,920,-1.33,1.83,202.61,174.73,0.7,0.023,0.031,1.034,99243.89,27.65,0,0,0.0,0.0,0.0,0.0,0.96,-27.0
2025-11-09T20:04:39.966753,921,-1.33,1.83,202.61,174.74,0.15,0.023,0.033,1.031,99243.72,27.64,0,0,0.0,0.0,0.0,0.0,0.96,-27.0
2025-11-09T20:04:40.065526,922,-1.33,1.82,202.59,174.91,1.74,0.025,0.033,1.03,99241.66,27.66,0,0,0.0,0.0,0.0,0.0,0.96,-27.0
2025-11-09T20:04:40.167689,923,-1.33,1.82,202.58,174.79,-1.23,0.022,0.034,1.03,99243.12,27.61,0,0,0.0,0.0,0.0,0.0,0.96,-28.0
2025-11-09T20:04:40.266173,924,-1.33,1.82,202.58,174.95,1.62,0.024,0.033,1.029,99241.2,27.65,0,0,0.0,0.0,0.0,0.0,0.96,-27.0
2025-11-09T20:04:40.368159,925,-1.32,1.82,202.56,174.88,-0.75,0.025,0.032,1.031,99242.09,27.66,0,0,0.0,0.0,0.0,0.0,0.96,-27.0
2025-11-09T20:04:40.467211,926,-1.32,1.82,202.55,174.88,0.03,0.021,0.032,1.031,99242.06,27.62,0,0,0.0,0.0,0.0,0.0,0.96,-27.0
2025-11-09T20:04:40.568781,927,-1.32,1.82,202.55,174.66,-2.25,0.024,0.032,1.03,99244.72,27.68,0,0,0.0,0.0,0.0,0.0,0.96,-27.0
2025-11-09T20:04:40.667328,928,-1.33,1.82,202.54,174.84,1.82,0.025,0.033,1.03,99242.58,27.62,0,0,0.0,0.0,0.0,0.0,0.96,-27.0
2025-11-09T20:04:40.765870,929,-1.33,1.82,202.55,174.89,0.56,0.023,0.034,1.029,99241.92,27.61,0,0,0.0,0.0,0.0,0.0,0.96,-26.0
2025-11-09T20:04:40.868321,930,-1.33,1.82,202.55,174.78,-1.17,0.024,0.033,1.029,99243.3,27.58,0,0,0.0,0.0,0.0,0.0,0.96,-26.0
2025-11-09T20:04:40.966260,931,-1.33,1.82,202.53,174.87,0.89,0.023,0.031,1.03,99242.23,27.61,0,0,0.0,0.0,0.0,0.0,0.96,-27.0
2025-11-09T20:04:41.068414,932,-1.32,1.82,202.54,174.89,0.3,0.021,0.033,1.03,99241.89,27.64,0,0,0.0,0.0,0.0,0.0,0.96,-27.0
2025-11-09T20:04:41.167332,933,-1.32,1.82,202.53,175.08,1.84,0.023,0.034,1.03,99239.72,27.64,0,0,0.0,0.0,0.0,0.0,0.96,-27.0
2025-11-09T20:04:41.269343,934,-1.33,1.82,202.54,175.1,0.24,0.024,0.032,1.028,99239.44,27.63,0,0,0.0,0.0,0.0,0.0,0.96,-26.0
2025-11-09T20:04:41.368024,935,-1.32,1.82,202.52,174.98,-1.23,0.023,0.032,1.03,99240.89,27.64,0,0,0.0,0.0,0.0,0.0,0.96,-26.0
2025-11-09T20:04:41.469725,936,-1.32,1.82,202.52,174.97,-0.12,0.024,0.032,1.031,99241.03,27.62,0,0,0.0,0.0,0.0,0.0,0.96,-28.0
2025-11-09T20:04:41.568359,937,-1.32,1.82,202.52,174.89,-0.78,0.024,0.033,1.029,99241.95,27.61,0,0,0.0,0.0,0.0,0.0,0.96,-27.0
2025-11-09T20:04:41.666778,938,-1.33,1.82,202.53,174.92,0.35,0.024,0.033,1.029,99241.55,27.64,0,0,0.0,0.0,0.0,0.0,0.96,-27.0
2025-11-09T20:04:41.769106,939,-1.33,1.82,202.54,175.02,0.99,0.023,0.033,1.028,99240.38,27.62,0,0,0.0,0.0,0.0,0.0,0.96,-26.0
2025-11-09T20:04:41.867458,940,-1.33,1.82,202.55,174.88,-1.48,0.023,0.033,1.029,99242.12,27.66,0,0,0.0,0.0,0.0,0.0,0.96,-27.0
2025-11-09T20:04:41.970486,941,-1.33,1.82,202.54,174.86,-0.15,0.022,0.033,1.028,99242.3,27.61,0,0,0.0,0.0,0.0,0.0,0.96,-27.0
2025-11-09T20:04:42.067845,942,-1.33,1.83,202.57,174.91,0.54,0.023,0.032,1.03,99241.66,27.65,0,0,0.0,0.0,0.0,0.0,0.96,-26.0
2025-11-09T20:04:42.166497,943,-1.33,1.83,202.57,175.12,2.09,0.023,0.034,1.028,99239.2,27.62,0,0,0.0,0.0,0.0,0.0,0.96,-26.0
2025-11-09T20:04:42.268879,944,-1.33,1.83,202.58,174.98,-1.46,0.025,0.032,1.03,99240.92,27.58,0,0,0.0,0.0,0.0,0.0,0.96,-27.0
2025-11-09T20:04:42.367219,945,-1.33,1.83,202.59,174.9,-0.73,0.023,0.032,1.03,99241.78,27.63,0,0,0.0,0.0,0.0,0.0,0.96,-26.0
2025-11-09T20:04:42.468968,946,-1.33,1.83,202.6,174.98,0.75,0.022,0.033,1.033,99240.89,27.61,0,0,0.0,0.0,0.0,0.0,0.96,-27.0
2025-11-09T20:04:42.567815,947,-1.33,1.83,202.61,174.67,-3.08,0.024,0.032,1.027,99244.52,27.64,0,0,0.0,0.0,0.0,0.0,0.96,-28.0
2025-11-09T20:04:42.666142,948,-1.33,1.83,202.6,174.78,1.04,0.022,0.031,1.029,99243.3,27.58,0,0,0.0,0.0,0.0,0.0,0.96,-27.0
2025-11-09T20:04:42.768703,949,-1.33,1.83,202.61,174.88,1.09,0.023,0.032,1.028,99242.01,27.62,0,0,0.0,0.0,0.0,0.0,0.96,-27.0
2025-11-09T20:04:42.866711,950,-1.33,1.83,202.61,174.95,0.65,0.023,0.035,1.032,99241.23,27.57,0,0,0.0,0.0,0.0,0.0,0.96,-27.0
2025-11-09T20:04:42.968876,951,-1.33,1.83,202.61,174.99,0.44,0.023,0.033,1.029,99240.72,27.6,0,0,0.0,0.0,0.0,0.0,0.96,-26.0
2025-11-09T20:04:43.067580,952,-1.33,1.83,202.62,175.05,0.53,0.022,0.034,1.03,99240.09,27.63,0,0,0.0,0.0,0.0,0.0,0.96,-27.0
