timestamp,packet_count,Pitch,Roll,Yaw,Altitude,Velocity,Accel X,Accel Y,Accel Z,Pressure Pa,IMU Temp C,GPS Fix,GPS Sats,GPS Lat,GPS Lon,GPS Alt m,GPS Speed m/s,VBat,RSSI
2025-11-09T16:45:24.830722,0,-0.33,0.82,198.47,3048.32,0.0,0.005,0.014,1.043,69683.36,28.95,0,0,0.0,0.0,0.0,0.0,0.97,-22.0
2025-11-09T16:45:24.929107,1,-0.33,0.82,198.47,3048.32,0.0,0.007,0.015,1.04,69683.36,28.93,0,0,0.0,0.0,0.0,0.0,0.97,-22.0
2025-11-09T16:45:25.027582,2,-0.33,0.82,198.46,3048.32,0.0,0.006,0.017,1.042,69683.36,28.92,0,0,0.0,0.0,0.0,0.0,0.97,-23.0
2025-11-09T16:45:25.129981,3,-0.33,0.82,198.46,3048.32,0.0,0.007,0.017,1.04,69683.36,28.95,0,0,0.0,0.0,0.0,0.0,0.97,-22.0
2025-11-09T16:45:25.228275,4,-0.33,0.82,198.46,3048.32,0.0,0.005,0.014,1.042,69683.36,28.96,0,0,0.0,0.0,0.0,0.0,0.97,-22.0
2025-11-09T16:45:25.330367,5,-0.33,0.82,198.47,3048.32,0.0,0.005,0.013,1.042,69683.36,28.95,0,0,0.0,0.0,0.0,0.0,0.97,-22.0
2025-11-09T16:45:25.429194,6,-0.33,0.82,198.45,3048.32,0.0,0.005,0.015,1.041,69683.36,28.9,0,0,0.0,0.0,0.0,0.0,0.97,-22.0
2025-11-09T16:45:25.531076,7,-0.33,0.82,198.46,3048.32,0.0,0.005,0.015,1.042,69683.36,28.95,0,0,0.0,0.0,0.0,0.0,0.97,-23.0
2025-11-09T16:45:25.629629,8,-0.33,0.82,198.46,3048.32,0.0,0.006,0.015,1.042,69683.36,28.92,0,0,0.0,0.0,0.0,0.0,0.97,-22.0
2025-11-09T16:45:25.728005,9,-0.33,0.82,198.45,3048.32,0.0,0.006,0.016,1.041,69683.36,28.96,0,0,0.0,0.0,0.0,0.0,0.97,-22.0
2025-11-09T16:45:25.830136,10,-0.33,0.82,198.43,3048.32,0.0,0.005,0.015,1.041,69683.36,28.89,0,0,0.0,0.0,0.0,0.0,0.97,-22.0
2025-11-09T16:45:25.928800,11,-0.33,0.82,198.43,3048.32,0.0,0.007,0.014,1.042,69683.36,28.89,0,0,0.0,0.0,0.0,0.0,0.97,-22.0
2025-11-09T16:45:26.030803,12,-0.34,0.82,198.45,3048.32,0.0,0.007,0.015,1.043,69683.36,28.95,0,0,0.0,0.0,0.0,0.0,0.97,-21.0
2025-11-09T16:45:26.129846,13,-0.34,0.82,198.45,3048.32,0.0,0.006,0.016,1.041,69683.36,28.91,0,0,0.0,0.0,0.0,0.0,0.97,-22.0
2025-11-09T16:45:26.228099,14,-0.33,0.82,198.46,3048.32,0.0,0.004,0.015,1.043,69683.36,28.94,0,0,0.0,0.0,0.0,0.0,0.97,-23.0
2025-11-09T16:45:26.329695,15,-0.33,0.82,198.46,3048.32,0.0,0.005,0.014,1.042,69683.36,28.9,0,0,0.0,0.0,0.0,0.0,0.97,-23.0
2025-11-09T16:45:26.428369,16,-0.33,0.82,198.45,3048.32,0.0,0.006,0.014,1.042,69683.36,28.93,0,0,0.0,0.0,0.0,0.0,0.97,-24.0
2025-11-09T16:45:26.530636,17,-0.33,0.82,198.44,3048.32,0.0,0.006,0.015,1.043,69683.36,28.96,0,0,0.0,0.0,0.0,0.0,0.97,-22.0
2025-11-09T16:45:26.629416,18,-0.33,0.82,198.45,3048.32,0.0,0.005,0.014,1.042,69683.36,28.95,0,0,0.0,0.0,0.0,0.0,0.97,-22.0
2025-11-09T16:45:26.731235,19,-0.33,0.82,198.45,3048.32,0.0,0.005,0.016,1.042,69683.36,28.93,0,0,0.0,0.0,0.0,0.0,0.97,-23.0
2025-11-09T16:45:26.829548,20,-0.33,0.82,198.45,3048.32,0.0,0.006,0.015,1.042,69683.36,28.95,0,0,0.0,0.0,0.0,0.0,0.97,-22.0
2025-11-09T16:45:26.928400,21,-0.33,0.82,198.47,3048.32,0.0,0.007,0.015,1.042,69683.36,28.92,0,0,0.0,0.0,0.0,0.0,0.97,-23.0
2025-11-09T16:45:27.030331,22,-0.34,0.82,198.47,3048.32,0.0,0.006,0.015,1.041,69683.36,28.91,0,0,0.0,0.0,0.0,0.0,0.97,-23.0
2025-11-09T16:45:27.128933,23,-0.34,0.82,198.46,3048.32,0.0,0.006,0.015,1.04,69683.36,28.97,0,0,0.0,0.0,0.0,0.0,0.97,-22.0
2025-11-09T16:45:27.230857,24,-0.33,0.82,198.47,3048.32,0.0,0.005,0.014,1.042,69683.36,28.93,0,0,0.0,0.0,0.0,0.0,0.97,-23.0
2025-11-09T16:45:27.329305,25,-0.34,0.82,198.47,3048.32,0.0,0.006,0.015,1.042,69683.36,28.95,0,0,0.0,0.0,0.0,0.0,0.97,-23.0
2025-11-09T16:45:27.427737,26,-0.33,0.82,198.48,3048.32,0.0,0.007,0.015,1.043,69683.36,28.98,0,0,0.0,0.0,0.0,0.0,0.97,-22.0
2025-11-09T16:45:27.529907,27,-0.33,0.82,198.51,3048.32,0.0,0.005,0.015,1.04,69683.36,28.91,0,0,0.0,0.0,0.0,0.0,0.97,-23.0
2025-11-09T16:45:27.628843,28,-0.33,0.82,198.51,3048.32,0.0,0.006,0.016,1.042,69683.36,28.95,0,0,0.0,0.0,0.0,0.0,0.97,-23.0
2025-11-09T16:45:27.730511,29,-0.33,0.82,198.52,3048.32,0.0,0.004,0.016,1.043,69683.36,28.95,0,0,0.0,0.0,0.0,0.0,0.97,-23.0
2025-11-09T16:45:27.829002,30,-0.33,0.82,198.53,3048.32,0.0,0.004,0.015,1.041,69683.36,28.95,0,0,0.0,0.0,0.0,0.0,0.97,-22.0
2025-11-09T16:45:27.931209,31,-0.33,0.82,198.52,3048.32,0.0,0.006,0.014,1.043,69683.36,28.95,0,0,0.0,0.0,0.0,0.0,0.97,-22.0
2025-11-09T16:45:28.029755,32,-0.33,0.82,198.52,3048.32,0.0,0.005,0.014,1.042,69683.36,28.94,0,0,0.0,0.0,0.0,0.0,0.97,-22.0
2025-11-09T16:45:28.128474,33,-0.33,0.82,198.52,3048.32,0.0,0.006,0.014,1.044,69683.36,28.96,0,0,0.0,0.0,0.0,0.0,0.97,-22.0
2025-11-09T16:45:28.230367,34,-0.33,0.82,198.53,3048.32,0.0,0.005,0.016,1.043,69683.36,28.95,0,0,0.0,0.0,0.0,0.0,0.97,-22.0
2025-11-09T16:45:28.329094,35,-0.33,0.82,198.55,3048.32,0.0,0.005,0.014,1.042,69683.36,28.96,0,0,0.0,0.0,0.0,0.0,0.97,-22.0
2025-11-09T16:45:28.431043,36,-0.33,0.82,198.56,3048.32,0.0,0.005,0.015,1.042,69683.36,28.96,0,0,0.0,0.0,0.0,0.0,0.97,-22.0
2025-11-09T16:45:28.529668,37,-0.33,0.82,198.57,3048.32,0.0,0.006,0.015,1.041,69683.36,28.92,0,0,0.0,0.0,0.0,0.0,0.97,-23.0
2025-11-09T16:45:28.628216,38,-0.33,0.82,198.56,3048.32,0.0,0.006,0.016,1.043,69683.36,28.91,0,0,0.0,0.0,0.0,0.0,0.97,-22.0
2025-11-09T16:45:28.730249,39,-0.33,0.82,198.55,3048.32,0.0,0.008,0.015,1.043,69683.36,28.96,0,0,0.0,0.0,0.0,0.0,0.97,-23.0
2025-11-09T16:45:28.828970,40,-0.33,0.82,198.54,3048.32,0.0,0.006,0.015,1.043,69683.36,28.95,0,0,0.0,0.0,0.0,0.0,0.97,-22.0
2025-11-09T16:45:28.930894,41,-0.33,0.82,198.54,3048.32,0.0,0.005,0.015,1.042,69683.36,28.96,0,0,0.0,0.0,0.0,0.0,0.97,-22.0
2025-11-09T16:45:29.029513,42,-0.33,0.82,198.54,3048.32,0.0,0.005,0.013,1.043,69683.36,28.95,0,0,0.0,0.0,0.0,0.0,0.97,-23.0
2025-11-09T16:45:29.131256,43,-0.33,0.82,198.53,3048.32,0.0,0.005,0.016,1.043,69683.36,28.97,0,0,0.0,0.0,0.0,0.0,0.97,-23.0
2025-11-09T16:45:29.230052,44,-0.33,0.82,198.52,3048.32,0.0,0.007,0.015,1.041,69683.36,28.93,0,0,0.0,0.0,0.0,0.0,0.97,-23.0
2025-11-09T16:45:29.328457,45,-0.33,0.82,198.51,3048.32,0.0,0.006,0.016,1.041,69683.36,28.95,0,0,0.0,0.0,0.0,0.0,0.97,-22.0
2025-11-09T16:45:29.430292,46,-0.33,0.82,198.5,3048.32,0.0,0.004,0.016,1.044,69683.36,28.91,0,0,0.0,0.0,0.0,0.0,0.97,-23.0
2025-11-09T16:45:29.529865,47,-0.33,0.82,198.49,3048.32,0.0,0.006,0.014,1.043,69683.36,28.96,0,0,0.0,0.0,0.0,0.0,0.97,-22.0
2025-11-09T16:45:29.631147,48,-0.33,0.82,198.48,3048.32,0.0,0.006,0.015,1.042,69683.36,28.92,0,0,0.0,0.0,0.0,0.0,0.97,-22.0
2025-11-09T16:45:29.729566,49,-0.33,0.82,198.48,3048.32,0.0,0.005,0.016,1.042,69683.36,28.91,0,0,0.0,0.0,0.0,0.0,0.97,-22.0
2025-11-09T16:45:29.831582,50,-0.33,0.82,198.49,3048.32,0.0,0.004,0.015,1.042,69683.36,28.93,0,0,0.0,0.0,0.0,0.0,0.97,-22.0
2025-11-09T16:45:29.930362,51,-0.33,0.82,198.49,3048.32,0.0,0.004,0.015,1.042,69683.36,28.93,0,0,0.0,0.0,0.0,0.0,0.97,-23.0
2025-11-09T16:45:30.028927,52,-0.33,0.82,198.48,3048.32,0.0,0.005,0.014,1.042,69683.36,28.95,0,0,0.0,0.0,0.0,0.0,0.97,-22.0
2025-11-09T16:45:30.130929,53,-0.33,0.82,198.48,3048.32,0.0,0.005,0.014,1.041,69683.36,28.92,0,0,0.0,0.0,0.0,0.0,0.97,-23.0
2025-11-09T16:45:30.229524,54,-0.33,0.82,198.49,3048.32,0.0,0.003,0.016,1.043,69683.36,28.97,0,0,0.0,0.0,0.0,0.0,0.97,-22.0
2025-11-09T16:45:30.331422,55,-0.33,0.82,198.48,3048.32,0.0,0.006,0.015,1.042,69683.36,28.96,0,0,0.0,0.0,0.0,0.0,0.97,-23.0
2025-11-09T16:45:30.430053,56,-0.33,0.82,198.47,3048.32,0.0,0.004,0.014,1.041,69683.36,28.95,0,0,0.0,0.0,0.0,0.0,0.97,-22.0
2025-11-09T16:45:30.528619,57,-0.33,0.82,198.48,3048.32,0.0,0.006,0.014,1.042,69683.36,28.96,0,0,0.0,0.0,0.0,0.0,0.97,-23.0
2025-11-09T16:45:30.630573,58,-0.33,0.82,198.48,3048.32,0.0,0.005,0.014,1.043,69683.36,28.93,0,0,0.0,0.0,0.0,0.0,0.97,-22.0
2025-11-09T16:45:30.729196,59,-0.33,0.82,198.48,3048.32,0.0,0.006,0.015,1.043,69683.36,28.93,0,0,0.0,0.0,0.0,0.0,0.97,-24.0
2025-11-09T16:45:30.831079,60,-0.33,0.82,198.47,3048.32,0.0,0.004,0.014,1.043,69683.36,28.97,0,0,0.0,0.0,0.0,0.0,0.97,-23.0
2025-11-09T16:45:30.929754,61,-0.33,0.82,198.47,3048.32,0.0,0.006,0.016,1.042,69683.36,28.93,0,0,0.0,0.0,0.0,0.0,0.97,-23.0
2025-11-09T16:45:31.031756,62,-0.33,0.82,198.49,3048.32,0.0,0.005,0.018,1.041,69683.36,28.89,0,0,0.0,0.0,0.0,0.0,0.97,-23.0
2025-11-09T16:45:31.130352,63,-0.33,0.82,198.49,3048.32,0.0,0.006,0.015,1.041,69683.36,28.9,0,0,0.0,0.0,0.0,0.0,0.97,-23.0
2025-11-09T16:45:31.228987,64,-0.33,0.82,198.48,3048.32,0.0,0.005,0.015,1.042,69683.36,28.94,0,0,0.0,0.0,0.0,0.0,0.97,-23.0
2025-11-09T16:45:31.330908,65,-0.33,0.82,198.47,3048.32,0.0,0.005,0.014,1.042,69683.36,28.93,0,0,0.0,0.0,0.0,0.0,0.97,-23.0
2025-11-09T16:45:31.429567,66,-0.33,0.82,198.47,3048.32,0.0,0.005,0.015,1.042,69683.36,28.94,0,0,0.0,0.0,0.0,0.0,0.97,-24.0
2025-11-09T16:45:31.531528,67,-0.33,0.82,198.45,3048.32,0.0,0.004,0.015,1.042,69683.36,28.91,0,0,0.0,0.0,0.0,0.0,0.97,-23.0
2025-11-09T16:45:31.630119,68,-0.33,0.82,198.44,3048.32,0.0,0.006,0.015,1.042,69683.36,28.93,0,0,0.0,0.0,0.0,0.0,0.97,-23.0
2025-11-09T16:45:31.732040,69,-0.33,0.82,198.44,3048.32,0.0,0.005,0.015,1.041,69683.36,28.9,0,0,0.0,0.0,0.0,0.0,0.97,-23.0
2025-11-09T16:45:31.830758,70,-0.33,0.82,198.42,3048.32,0.0,0.005,0.015,1.043,69683.36,28.88,0,0,0.0,0.0,0.0,0.0,0.97,-23.0
2025-11-09T16:45:31.929133,71,-0.33,0.81,198.41,3048.32,0.0,0.006,0.015,1.044,69683.36,28.87,0,0,0.0,0.0,0.0,0.0,0.97,-23.0
2025-11-09T16:45:32.031232,72,-0.33,0.82,198.39,3048.32,0.0,0.006,0.016,1.042,69683.36,28.91,0,0,0.0,0.0,0.0,0.0,0.97,-23.0
2025-11-09T16:45:32.129691,73,-0.33,0.82,198.38,3048.32,0.0,0.004,0.014,1.042,69683.36,28.91,0,0,0.0,0.0,0.0,0.0,0.97,-23.0
2025-11-09T16:45:32.231614,74,-0.33,0.82,198.37,3048.32,0.0,0.007,0.016,1.042,69683.36,28.91,0,0,0.0,0.0,0.0,0.0,0.97,-23.0
2025-11-09T16:45:32.330079,75,-0.33,0.82,198.37,3048.32,0.0,0.005,0.015,1.043,69683.36,28.93,0,0,0.0,0.0,0.0,0.0,0.97,-23.0
2025-11-09T16:45:32.428922,76,-0.33,0.82,198.36,3048.32,0.0,0.005,0.014,1.041,69683.36,28.89,0,0,0.0,0.0,0.0,0.0,0.97,-23.0
2025-11-09T16:45:32.530926,77,-0.33,0.82,198.33,3048.32,0.0,0.005,0.016,1.042,69683.36,28.95,0,0,0.0,0.0,0.0,0.0,0.97,-24.0
2025-11-09T16:45:32.629385,78,-0.33,0.82,198.3,3048.32,0.0,0.005,0.015,1.043,69683.36,28.9,0,0,0.0,0.0,0.0,0.0,0.97,-23.0
2025-11-09T16:45:32.731516,79,-0.33,0.82,198.29,3048.32,0.0,0.007,0.015,1.042,69683.36,28.95,0,0,0.0,0.0,0.0,0.0,0.97,-22.0
2025-11-09T16:45:32.830030,80,-0.33,0.82,198.28,3048.32,0.0,0.007,0.014,1.041,69683.36,28.93,0,0,0.0,0.0,0.0,0.0,0.97,-22.0
2025-11-09T16:45:32.932242,81,-0.33,0.82,198.28,3048.32,0.0,0.004,0.016,1.041,69683.36,28.89,0,0,0.0,0.0,0.0,0.0,0.97,-24.0
2025-11-09T16:45:33.030798,82,-0.33,0.82,198.27,3048.32,0.0,0.005,0.015,1.04,69683.36,28.93,0,0,0.0,0.0,0.0,0.0,0.97,-24.0
2025-11-09T16:45:33.129494,83,-0.33,0.82,198.27,3048.32,0.0,0.005,0.015,1.042,69683.36,28.9,0,0,0.0,0.0,0.0,0.0,0.97,-23.0
2025-11-09T16:45:33.231176,84,-0.33,0.82,198.27,3048.32,0.0,0.006,0.015,1.043,69683.36,28.91,0,0,0.0,0.0,0.0,0.0,0.97,-23.0
2025-11-09T16:45:33.329849,85,-0.33,0.82,198.27,3048.32,0.0,0.006,0.015,1.043,69683.36,28.9,0,0,0.0,0.0,0.0,0.0,0.97,-23.0
2025-11-09T16:45:33.431782,86,-0.33,0.82,198.27,3048.32,0.0,0.006,0.014,1.042,69683.36,28.91,0,0,0.0,0.0,0.0,0.0,0.97,-23.0
2025-11-09T16:45:33.530448,87,-0.33,0.82,198.27,3048.32,0.0,0.007,0.016,1.042,69683.36,28.9,0,0,0.0,0.0,0.0,0.0,0.97,-24.0
2025-11-09T16:45:33.628890,88,-0.33,0.82,198.28,3048.32,0.0,0.005,0.014,1.044,69683.36,28.94,0,0,0.0,0.0,0.0,0.0,0.97,-23.0
2025-11-09T16:45:33.731008,89,-0.33,0.82,198.3,3048.32,0.0,0.004,0.015,1.042,69683.36,28.94,0,0,0.0,0.0,0.0,0.0,0.97,-24.0
2025-11-09T16:45:33.829813,90,-0.33,0.82,198.3,3048.32,0.0,0.003,0.015,1.042,69683.36,28.92,0,0,0.0,0.0,0.0,0.0,0.97,-23.0
2025-11-09T16:45:33.931695,91,-0.33,0.82,198.29,3048.32,0.0,0.006,0.015,1.043,69683.36,28.93,0,0,0.0,0.0,0.0,0.0,0.97,-22.0
2025-11-09T16:45:34.030262,92,-0.33,0.82,198.28,3048.32,0.0,0.006,0.015,1.043,69683.36,28.91,0,0,0.0,0.0,0.0,0.0,0.97,-23.0
2025-11-09T16:45:34.132321,93,-0.33,0.82,198.28,3048.32,0.0,0.006,0.015,1.042,69683.36,28.93,0,0,0.0,0.0,0.0,0.0,0.97,-23.0
2025-11-09T16:45:34.231033,94,-0.33,0.82,198.29,3048.32,0.0,0.007,0.016,1.041,69683.36,28.93,0,0,0.0,0.0,0.0,0.0,0.97,-23.0
2025-11-09T16:45:34.329508,95,-0.33,0.82,198.31,3048.32,0.0,0.007,0.015,1.043,69683.36,28.91,0,0,0.0,0.0,0.0,0.0,0.97,-23.0
2025-11-09T16:45:34.431289,96,-0.33,0.82,198.3,3048.32,0.0,0.005,0.014,1.04,69683.36,28.91,0,0,0.0,0.0,0.0,0.0,0.97,-23.0
2025-11-09T16:45:34.530030,97,-0.33,0.82,198.31,3048.32,0.0,0.006,0.015,1.041,69683.36,28.93,0,0,0.0,0.0,0.0,0.0,0.97,-23.0
2025-11-09T16:45:34.631853,98,-0.33,0.82,198.3,3048.32,0.0,0.006,0.014,1.042,69683.36,28.96,0,0,0.0,0.0,0.0,0.0,0.97,-22.0
2025-11-09T16:45:34.730333,99,-0.33,0.82,198.32,3048.32,0.0,0.003,0.014,1.041,69683.36,28.93,0,0,0.0,0.0,0.0,0.0,0.97,-22.0
2025-11-09T16:45:34.832502,100,-0.33,0.82,198.31,3048.32,0.0,0.004,0.016,1.046,69683.36,28.95,0,0,0.0,0.0,0.0,0.0,0.97,-23.0
2025-11-09T16:45:34.930989,101,-0.33,0.82,198.32,3048.32,0.0,0.006,0.015,1.043,69683.36,28.93,0,0,0.0,0.0,0.0,0.0,0.97,-23.0
2025-11-09T16:45:35.029589,102,-0.33,0.82,198.32,3048.32,0.0,0.005,0.016,1.043,69683.36,28.95,0,0,0.0,0.0,0.0,0.0,0.97,-22.0
2025-11-09T16:45:35.131657,103,-0.33,0.82,198.33,3048.32,0.0,0.004,0.016,1.041,69683.36,28.96,0,0,0.0,0.0,0.0,0.0,0.97,-23.0
2025-11-09T16:45:35.230267,104,-0.33,0.82,198.34,3048.32,0.0,0.005,0.014,1.041,69683.36,28.96,0,0,0.0,0.0,0.0,0.0,0.97,-23.0
2025-11-09T16:45:35.332238,105,-0.33,0.82,198.36,3048.32,0.0,0.005,0.014,1.042,69683.36,28.93,0,0,0.0,0.0,0.0,0.0,0.97,-23.0
2025-11-09T16:45:35.430836,106,-0.33,0.82,198.37,3048.32,0.0,0.005,0.015,1.043,69683.36,28.91,0,0,0.0,0.0,0.0,0.0,0.97,-23.0
2025-11-09T16:45:35.529395,107,-0.33,0.82,198.38,3048.32,0.0,0.004,0.015,1.044,69683.36,28.98,0,0,0.0,0.0,0.0,0.0,0.97,-23.0
2025-11-09T16:45:35.631524,108,-0.33,0.82,198.37,3048.32,0.0,0.006,0.015,1.042,69683.36,28.97,0,0,0.0,0.0,0.0,0.0,0.97,-23.0
2025-11-09T16:45:35.729919,109,-0.33,0.82,198.37,3048.32,0.0,0.005,0.015,1.04,69683.36,28.98,0,0,0.0,0.0,0.0,0.0,0.97,-22.0
2025-11-09T16:45:35.832132,110,-0.33,0.82,198.37,3048.32,0.0,0.005,0.015,1.042,69683.36,28.93,0,0,0.0,0.0,0.0,0.0,0.97,-22.0
2025-11-09T16:45:35.930395,111,-0.33,0.82,198.37,3048.32,0.0,0.005,0.016,1.043,69683.36,28.96,0,0,0.0,0.0,0.0,0.0,0.97,-22.0
2025-11-09T16:45:36.032561,112,-0.33,0.82,198.36,3048.32,0.0,0.006,0.015,1.043,69683.36,28.98,0,0,0.0,0.0,0.0,0.0,0.97,-22.0
2025-11-09T16:45:36.131299,113,-0.33,0.82,198.36,3048.32,0.0,0.005,0.014,1.042,69683.36,28.95,0,0,0.0,0.0,0.0,0.0,0.97,-23.0
2025-11-09T16:45:36.229846,114,-0.33,0.82,198.34,3048.32,0.0,0.004,0.015,1.041,69683.36,28.93,0,0,0.0,0.0,0.0,0.0,0.97,-23.0
2025-11-09T16:45:36.331878,115,-0.33,0.82,198.32,3048.32,0.0,0.005,0.013,1.043,69683.36,28.97,0,0,0.0,0.0,0.0,0.0,0.97,-22.0
2025-11-09T16:45:36.430311,116,-0.33,0.82,198.31,3048.32,0.0,0.004,0.014,1.044,69683.36,28.93,0,0,0.0,0.0,0.0,0.0,0.97,-22.0
2025-11-09T16:45:36.532436,117,-0.33,0.82,198.3,3048.32,0.0,0.005,0.014,1.042,69683.36,28.93,0,0,0.0,0.0,0.0,0.0,0.97,-23.0
2025-11-09T16:45:36.630904,118,-0.33,0.82,198.3,3048.32,0.0,0.007,0.016,1.044,69683.36,28.94,0,0,0.0,0.0,0.0,0.0,0.97,-23.0
2025-11-09T16:45:36.732952,119,-0.33,0.82,198.3,3048.32,0.0,0.005,0.017,1.043,69683.36,28.89,0,0,0.0,0.0,0.0,0.0,0.97,-22.0
2025-11-09T16:45:36.831611,120,-0.33,0.82,198.28,3048.32,0.0,0.004,0.016,1.043,69683.36,28.95,0,0,0.0,0.0,0.0,0.0,0.97,-22.0
2025-11-09T16:45:36.930237,121,-0.33,0.82,198.28,3048.32,0.0,0.006,0.016,1.041,69683.36,28.94,0,0,0.0,0.0,0.0,0.0,0.97,-23.0
2025-11-09T16:45:37.032281,122,-0.33,0.82,198.29,3048.32,0.0,0.004,0.015,1.046,69683.36,28.95,0,0,0.0,0.0,0.0,0.0,0.97,-23.0
2025-11-09T16:45:37.130801,123,-0.33,0.82,198.3,3048.32,0.0,0.003,0.014,1.042,69683.36,28.92,0,0,0.0,0.0,0.0,0.0,0.97,-23.0
2025-11-09T16:45:37.232782,124,-0.33,0.82,198.3,3048.32,0.0,0.005,0.015,1.041,69683.36,28.93,0,0,0.0,0.0,0.0,0.0,0.97,-24.0
2025-11-09T16:45:37.331453,125,-0.33,0.82,198.3,3048.32,0.0,0.006,0.015,1.042,69683.36,28.92,0,0,0.0,0.0,0.0,0.0,0.97,-23.0
2025-11-09T16:45:37.429932,126,-0.33,0.82,198.29,3048.32,0.0,0.006,0.015,1.042,69683.36,28.89,0,0,0.0,0.0,0.0,0.0,0.97,-23.0
2025-11-09T16:45:37.531984,127,-0.33,0.82,198.29,3048.32,0.0,0.005,0.016,1.042,69683.36,28.98,0,0,0.0,0.0,0.0,0.0,0.97,-23.0
2025-11-09T16:45:37.630445,128,-0.33,0.82,198.29,3048.32,0.0,0.006,0.015,1.042,69683.36,28.95,0,0,0.0,0.0,0.0,0.0,0.97,-23.0
2025-11-09T16:45:37.732526,129,-0.33,0.82,198.27,3048.32,0.0,0.005,0.015,1.043,69683.36,28.93,0,0,0.0,0.0,0.0,0.0,0.97,-23.0
2025-11-09T16:45:37.831010,130,-0.33,0.82,198.27,3048.32,0.0,0.004,0.014,1.043,69683.36,28.96,0,0,0.0,0.0,0.0,0.0,0.97,-23.0
2025-11-09T16:45:37.933101,131,-0.33,0.82,198.25,3048.32,0.0,0.005,0.017,1.041,69683.36,28.95,0,0,0.0,0.0,0.0,0.0,0.97,-23.0
2025-11-09T16:45:38.031711,132,-0.33,0.82,198.24,3048.32,0.0,0.006,0.015,1.043,69683.36,28.95,0,0,0.0,0.0,0.0,0.0,0.97,-22.0
2025-11-09T16:45:38.130358,133,-0.33,0.82,198.22,3048.32,0.0,0.005,0.016,1.042,69683.36,28.96,0,0,0.0,0.0,0.0,0.0,0.97,-23.0
2025-11-09T16:45:38.232343,134,-0.33,0.82,198.21,3048.32,0.0,0.006,0.015,1.043,69683.36,28.94,0,0,0.0,0.0,0.0,0.0,0.97,-23.0
2025-11-09T16:45:38.330939,135,-0.33,0.82,198.18,3048.32,0.0,0.004,0.014,1.041,69683.36,28.95,0,0,0.0,0.0,0.0,0.0,0.97,-23.0
2025-11-09T16:45:38.432751,136,-0.33,0.81,198.18,3048.32,0.0,0.007,0.015,1.041,69683.36,28.95,0,0,0.0,0.0,0.0,0.0,0.97,-22.0
2025-11-09T16:45:38.531264,137,-0.33,0.82,198.18,3048.32,0.0,0.006,0.016,1.043,69683.36,28.96,0,0,0.0,0.0,0.0,0.0,0.97,-23.0
2025-11-09T16:45:38.629859,138,-0.33,0.82,198.18,3048.32,0.0,0.004,0.014,1.042,69683.36,28.9,0,0,0.0,0.0,0.0,0.0,0.97,-23.0
2025-11-09T16:45:38.731904,139,-0.33,0.82,198.17,3048.32,0.0,0.005,0.015,1.041,69683.36,28.92,0,0,0.0,0.0,0.0,0.0,0.97,-23.0
2025-11-09T16:45:38.830553,140,-0.33,0.82,198.18,3048.32,0.0,0.006,0.016,1.042,69683.36,28.96,0,0,0.0,0.0,0.0,0.0,0.97,-22.0
2025-11-09T16:45:38.932469,141,-0.33,0.82,198.16,3048.32,0.0,0.007,0.014,1.042,69683.36,28.93,0,0,0.0,0.0,0.0,0.0,0.97,-23.0
2025-11-09T16:45:39.030982,142,-0.33,0.82,198.17,3048.32,0.0,0.004,0.015,1.042,69683.36,28.91,0,0,0.0,0.0,0.0,0.0,0.97,-23.0
2025-11-09T16:45:39.133091,143,-0.33,0.82,198.18,3048.32,0.0,0.004,0.015,1.043,69683.36,28.96,0,0,0.0,0.0,0.0,0.0,0.97,-23.0
2025-11-09T16:45:39.231710,144,-0.33,0.82,198.18,3048.32,0.0,0.005,0.015,1.042,69683.36,28.9,0,0,0.0,0.0,0.0,0.0,0.97,-23.0
2025-11-09T16:45:39.330340,145,-0.33,0.81,198.17,3048.32,0.0,0.005,0.015,1.042,69683.36,28.94,0,0,0.0,0.0,0.0,0.0,0.97,-22.0
2025-11-09T16:45:39.432290,146,-0.33,0.82,198.16,3048.32,0.0,0.006,0.015,1.041,69683.36,28.9,0,0,0.0,0.0,0.0,0.0,0.97,-23.0
2025-11-09T16:45:39.530887,147,-0.33,0.82,198.17,3048.32,0.0,0.004,0.014,1.041,69683.36,28.93,0,0,0.0,0.0,0.0,0.0,0.97,-23.0
2025-11-09T16:45:39.632847,148,-0.33,0.82,198.17,3048.32,0.0,0.005,0.015,1.043,69683.36,28.93,0,0,0.0,0.0,0.0,0.0,0.97,-23.0
2025-11-09T16:45:39.731492,149,-0.33,0.82,198.16,3048.32,0.0,0.005,0.016,1.042,69683.36,28.9,0,0,0.0,0.0,0.0,0.0,0.97,-24.0
2025-11-09T16:45:39.830169,150,-0.33,0.82,198.16,3048.32,0.0,0.006,0.015,1.042,69683.36,28.89,0,0,0.0,0.0,0.0,0.0,0.97,-24.0
2025-11-09T16:45:39.932033,151,-0.33,0.82,198.17,3048.32,0.0,0.004,0.015,1.043,69683.36,28.97,0,0,0.0,0.0,0.0,0.0,0.97,-23.0
2025-11-09T16:45:40.030712,152,-0.33,0.82,198.2,3048.32,0.0,0.004,0.015,1.042,69683.36,28.94,0,0,0.0,0.0,0.0,0.0,0.97,-22.0
2025-11-09T16:45:40.132613,153,-0.33,0.82,198.21,3048.32,0.0,0.005,0.015,1.043,69683.36,28.92,0,0,0.0,0.0,0.0,0.0,0.97,-23.0
2025-11-09T16:45:40.231266,154,-0.33,0.82,198.21,3048.32,0.0,0.005,0.015,1.042,69683.36,28.93,0,0,0.0,0.0,0.0,0.0,0.97,-23.0
2025-11-09T16:45:40.333123,155,-0.33,0.82,198.2,3048.32,0.0,0.007,0.014,1.042,69683.36,28.93,0,0,0.0,0.0,0.0,0.0,0.97,-24.0
2025-11-09T16:45:40.431671,156,-0.33,0.82,198.2,3048.32,0.0,0.005,0.015,1.043,69683.36,28.95,0,0,0.0,0.0,0.0,0.0,0.97,-23.0
2025-11-09T16:45:40.530094,157,-0.33,0.82,198.21,3048.32,0.0,0.005,0.016,1.043,69683.36,28.96,0,0,0.0,0.0,0.0,0.0,0.97,-23.0
2025-11-09T16:45:40.632456,158,-0.33,0.82,198.21,3048.32,0.0,0.007,0.015,1.042,69683.36,28.93,0,0,0.0,0.0,0.0,0.0,0.97,-23.0
2025-11-09T16:45:40.731035,159,-0.33,0.82,198.21,3048.32,0.0,0.004,0.014,1.042,69683.36,28.93,0,0,0.0,0.0,0.0,0.0,0.97,-24.0
2025-11-09T16:45:40.833014,160,-0.33,0.82,198.21,3048.32,0.0,0.005,0.015,1.043,69683.36,28.95,0,0,0.0,0.0,0.0,0.0,0.97,-24.0
2025-11-09T16:45:40.931514,161,-0.33,0.82,198.22,3048.32,0.0,0.005,0.015,1.043,69683.36,28.91,0,0,0.0,0.0,0.0,0.0,0.97,-22.0
2025-11-09T16:45:41.030437,162,-0.33,0.82,198.23,3048.32,0.0,0.004,0.014,1.043,69683.36,28.9,0,0,0.0,0.0,0.0,0.0,0.97,-23.0
2025-11-09T16:45:41.132169,163,-0.33,0.82,198.25,3048.32,0.0,0.006,0.016,1.043,69683.36,28.97,0,0,0.0,0.0,0.0,0.0,0.97,-23.0
2025-11-09T16:45:41.230690,164,-0.33,0.82,198.27,3048.32,0.0,0.004,0.013,1.042,69683.36,28.93,0,0,0.0,0.0,0.0,0.0,0.97,-22.0
2025-11-09T16:45:41.332725,165,-0.33,0.82,198.28,3048.32,0.0,0.006,0.014,1.043,69683.36,28.95,0,0,0.0,0.0,0.0,0.0,0.97,-22.0
2025-11-09T16:45:41.431217,166,-0.33,0.82,198.29,3048.32,0.0,0.008,0.016,1.042,69683.36,28.93,0,0,0.0,0.0,0.0,0.0,0.97,-22.0
2025-11-09T16:45:41.533415,167,-0.33,0.82,198.31,3048.32,0.0,0.005,0.014,1.041,69683.36,28.9,0,0,0.0,0.0,0.0,0.0,0.97,-22.0
2025-11-09T16:45:41.631862,168,-0.33,0.82,198.33,3048.32,0.0,0.006,0.015,1.042,69683.36,28.93,0,0,0.0,0.0,0.0,0.0,0.97,-23.0
2025-11-09T16:45:41.730359,169,-0.33,0.82,198.34,3048.32,0.0,0.005,0.014,1.041,69683.36,28.96,0,0,0.0,0.0,0.0,0.0,0.97,-24.0
2025-11-09T16:45:41.832531,170,-0.33,0.82,198.35,3048.32,0.0,0.005,0.014,1.042,69683.36,28.91,0,0,0.0,0.0,0.0,0.0,0.97,-23.0
2025-11-09T16:45:41.931277,171,-0.33,0.82,198.35,3048.32,0.0,0.006,0.014,1.044,69683.36,28.95,0,0,0.0,0.0,0.0,0.0,0.97,-24.0
2025-11-09T16:45:42.033256,172,-0.33,0.82,198.34,3048.32,0.0,0.005,0.015,1.042,69683.36,28.92,0,0,0.0,0.0,0.0,0.0,0.97,-24.0
2025-11-09T16:45:42.131849,173,-0.33,0.82,198.33,3048.32,0.0,0.005,0.018,1.047,69683.36,28.96,0,0,0.0,0.0,0.0,0.0,0.97,-23.0
2025-11-09T16:45:42.233852,174,-0.33,0.73,198.32,3048.32,0.0,-0.03,0.005,1.078,69683.36,29.0,0,0,0.0,0.0,0.0,0.0,0.97,-23.0
2025-11-09T16:45:42.332300,175,-0.34,0.85,198.31,3048.32,0.0,0.009,0.105,1.054,69683.36,28.95,0,0,0.0,0.0,0.0,0.0,0.97,-23.0
2025-11-09T16:45:42.431093,176,-0.4,0.76,198.3,3048.32,0.0,0.04,0.038,0.999,69683.36,28.96,0,0,0.0,0.0,0.0,0.0,0.97,-23.0
2025-11-09T16:45:42.532916,177,-0.45,0.75,198.3,3048.32,0.0,0.042,-0.016,1.015,69683.36,28.95,0,0,0.0,0.0,0.0,0.0,0.97,-23.0
2025-11-09T16:45:42.631448,178,-0.46,0.71,198.29,3048.32,0.0,0.031,-0.009,1.027,69683.36,28.97,0,0,0.0,0.0,0.0,0.0,0.97,-24.0
2025-11-09T16:45:42.733349,179,-0.46,0.7,198.28,3048.32,0.0,0.011,0.002,1.059,69683.36,28.97,0,0,0.0,0.0,0.0,0.0,0.97,-23.0
2025-11-09T16:45:42.832134,180,-0.42,0.72,198.27,3048.32,0.0,0.038,-0.03,1.093,69683.36,28.97,0,0,0.0,0.0,0.0,0.0,0.97,-23.0
2025-11-09T16:45:42.930509,181,-0.51,0.73,198.24,3048.32,0.0,0.034,0.037,0.966,69683.36,28.93,0,0,0.0,0.0,0.0,0.0,0.97,-23.0
2025-11-09T16:45:43.032799,182,-0.57,0.71,198.24,3048.32,0.0,0.036,-0.002,1.139,69683.36,28.93,0,0,0.0,0.0,0.0,0.0,0.97,-24.0
2025-11-09T16:45:43.131254,183,-0.66,0.73,198.23,3048.32,0.0,0.074,0.043,1.02,69683.36,28.95,0,0,0.0,0.0,0.0,0.0,0.97,-23.0
2025-11-09T16:45:43.233190,184,-0.79,0.72,198.21,3048.32,0.0,0.087,0.016,1.06,69683.36,28.98,0,0,0.0,0.0,0.0,0.0,0.97,-24.0
2025-11-09T16:45:43.331801,185,-0.91,0.7,198.19,3048.32,0.0,0.039,0.009,1.116,69683.36,28.95,0,0,0.0,0.0,0.0,0.0,0.97,-23.0
2025-11-09T16:45:43.433799,186,-1.13,0.72,198.15,3048.32,0.0,0.135,0.0,1.017,69683.36,28.97,0,0,0.0,0.0,0.0,0.0,0.97,-23.0
2025-11-09T16:45:43.532274,187,-1.34,0.7,198.12,3048.32,0.0,0.154,-0.024,1.01,69683.36,28.98,0,0,0.0,0.0,0.0,0.0,0.97,-23.0
2025-11-09T16:45:43.630805,188,-1.56,0.72,198.07,3048.32,0.0,0.163,0.034,1.003,69683.36,28.95,0,0,0.0,0.0,0.0,0.0,0.97,-23.0
2025-11-09T16:45:43.732910,189,-1.8,0.71,198.03,3048.32,0.0,0.17,0.006,1.035,69683.36,28.96,0,0,0.0,0.0,0.0,0.0,0.97,-23.0
2025-11-09T16:45:43.831622,190,-2.07,0.71,197.98,3048.32,0.0,0.193,0.012,1.033,69683.36,28.96,0,0,0.0,0.0,0.0,0.0,0.97,-23.0
2025-11-09T16:45:43.933435,191,-2.34,0.71,197.94,3048.32,0.0,0.19,0.016,1.031,69683.36,28.96,0,0,0.0,0.0,0.0,0.0,0.97,-23.0
2025-11-09T16:45:44.031929,192,-2.64,0.73,197.88,3048.32,0.0,0.197,0.021,1.044,69683.36,29.0,0,0,0.0,0.0,0.0,0.0,0.97,-23.0
2025-11-09T16:45:44.130963,193,-2.95,0.75,197.83,3048.32,0.0,0.236,0.01,1.019,69683.36,28.95,0,0,0.0,0.0,0.0,0.0,0.97,-23.0
2025-11-09T16:45:44.232879,194,-3.26,0.75,197.78,3048.32,0.0,0.237,0.025,0.998,69683.36,28.94,0,0,0.0,0.0,0.0,0.0,0.97,-24.0
2025-11-09T16:45:44.331435,195,-3.54,0.77,197.74,3048.32,0.0,0.237,0.035,0.988,69683.36,28.97,0,0,0.0,0.0,0.0,0.0,0.97,-22.0
2025-11-09T16:45:44.433355,196,-3.79,0.77,197.72,3048.32,0.0,0.222,0.013,0.974,69683.36,28.98,0,0,0.0,0.0,0.0,0.0,0.97,-22.0
2025-11-09T16:45:44.532026,197,-4.0,0.78,197.68,3048.32,0.0,0.199,0.003,1.021,69683.36,28.97,0,0,0.0,0.0,0.0,0.0,0.97,-24.0
2025-11-09T16:45:44.633867,198,-4.16,0.79,197.66,3048.32,0.0,0.169,0.029,1.022,69683.36,28.98,0,0,0.0,0.0,0.0,0.0,0.97,-23.0
2025-11-09T16:45:44.732580,199,-4.26,0.78,197.66,3048.32,0.0,0.138,-0.022,1.02,69683.36,28.98,0,0,0.0,0.0,0.0,0.0,0.97,-23.0
2025-11-09T16:45:44.831180,200,-4.29,0.79,197.65,3048.32,0.0,0.106,0.019,1.044,69683.36,28.96,0,0,0.0,0.0,0.0,0.0,0.97,-23.0
2025-11-09T16:45:44.933095,201,-4.24,0.8,197.67,3048.32,0.0,0.055,0.033,1.042,69683.36,28.95,0,0,0.0,0.0,0.0,0.0,0.97,-25.0
2025-11-09T16:45:45.031706,202,-4.14,0.77,197.7,3048.32,0.0,0.001,0.008,1.11,69683.36,28.95,0,0,0.0,0.0,0.0,0.0,0.97,-23.0
2025-11-09T16:45:45.133592,203,-4.04,0.77,197.72,3048.32,0.0,0.005,0.013,1.042,69683.36,28.96,0,0,0.0,0.0,0.0,0.0,0.97,-23.0
2025-11-09T16:45:45.232335,204,-3.92,0.78,197.74,3048.32,0.0,0.004,0.02,1.042,69683.36,28.94,0,0,0.0,0.0,0.0,0.0,0.97,-24.0
2025-11-09T16:45:45.330801,205,-3.82,0.78,197.76,3048.32,0.0,0.003,0.019,1.044,69683.36,28.95,0,0,0.0,0.0,0.0,0.0,0.97,-23.0
2025-11-09T16:45:45.432728,206,-3.71,0.79,197.77,3048.32,0.0,0.004,0.018,1.043,69683.36,28.99,0,0,0.0,0.0,0.0,0.0,0.97,-24.0
2025-11-09T16:45:45.531420,207,-3.61,0.79,197.8,3048.32,0.0,0.01,0.004,1.024,69683.36,29.0,0,0,0.0,0.0,0.0,0.0,0.97,-24.0
2025-11-09T16:45:45.633448,208,-3.51,0.79,197.81,3048.32,0.0,0.003,0.02,1.051,69683.36,28.91,0,0,0.0,0.0,0.0,0.0,0.97,-24.0
2025-11-09T16:45:45.731929,209,-3.42,0.79,197.83,3048.32,0.0,0.004,0.016,1.044,69683.36,28.96,0,0,0.0,0.0,0.0,0.0,0.97,-23.0
2025-11-09T16:45:45.833960,210,-3.33,0.79,197.86,3048.32,0.0,0.007,0.014,1.041,69683.36,28.97,0,0,0.0,0.0,0.0,0.0,0.97,-24.0
2025-11-09T16:45:45.932664,211,-3.24,0.79,197.89,3048.32,0.0,0.005,0.013,1.041,69683.36,28.9,0,0,0.0,0.0,0.0,0.0,0.97,-23.0
2025-11-09T16:45:46.030861,212,-3.15,0.79,197.91,3048.32,0.0,0.006,0.014,1.042,69683.36,29.0,0,0,0.0,0.0,0.0,0.0,0.97,-23.0
2025-11-09T16:45:46.133198,213,-3.07,0.79,197.94,3048.32,0.0,0.008,0.012,1.039,69683.36,28.95,0,0,0.0,0.0,0.0,0.0,0.97,-24.0
2025-11-09T16:45:46.231858,214,-3.07,0.87,197.95,3048.32,0.0,0.023,0.032,1.02,69683.36,28.96,0,0,0.0,0.0,0.0,0.0,0.97,-24.0
2025-11-09T16:45:46.333767,215,-2.97,0.82,197.96,3048.32,0.0,0.009,0.016,1.004,69683.36,28.9,0,0,0.0,0.0,0.0,0.0,0.97,-24.0
2025-11-09T16:45:46.432163,216,-2.93,0.75,197.95,3048.32,0.0,0.008,-0.071,1.039,69683.36,28.96,0,0,0.0,0.0,0.0,0.0,0.97,-24.0
2025-11-09T16:45:46.534292,217,-2.87,0.67,197.92,3048.32,0.0,0.061,-0.049,0.991,69683.36,28.98,0,0,0.0,0.0,0.0,0.0,0.97,-24.0
2025-11-09T16:45:46.632997,218,-2.75,0.74,197.91,3048.32,0.0,-0.006,0.042,1.12,69683.36,28.97,0,0,0.0,0.0,0.0,0.0,0.97,-23.0
2025-11-09T16:45:46.731551,219,-2.69,0.85,197.88,3048.32,0.0,0.006,0.114,1.08,69683.36,28.93,0,0,0.0,0.0,0.0,0.0,0.97,-23.0
2025-11-09T16:45:46.833555,220,-2.7,1.0,197.8,3048.32,0.0,0.066,0.115,0.915,69683.36,28.96,0,0,0.0,0.0,0.0,0.0,0.97,-22.0
2025-11-09T16:45:46.931963,221,-2.73,1.26,197.72,3048.32,0.0,0.058,0.11,0.983,69683.36,28.97,0,0,0.0,0.0,0.0,0.0,0.97,-22.0
2025-11-09T16:45:47.034012,222,-2.77,1.68,197.62,3048.32,0.0,0.078,0.251,0.997,69683.36,28.95,0,0,0.0,0.0,0.0,0.0,0.97,-23.0
2025-11-09T16:45:47.132675,223,-2.78,2.18,197.49,3048.32,0.0,0.076,0.331,0.925,69683.36,28.97,0,0,0.0,0.0,0.0,0.0,0.97,-22.0
2025-11-09T16:45:47.231378,224,-2.82,2.77,197.35,3048.32,0.0,0.046,0.369,0.994,69683.36,28.99,0,0,0.0,0.0,0.0,0.0,0.97,-23.0
2025-11-09T16:45:47.333148,225,-2.88,3.46,197.19,3048.32,0.0,0.093,0.423,0.902,69683.36,28.97,0,0,0.0,0.0,0.0,0.0,0.97,-22.0
2025-11-09T16:45:47.431937,226,-2.96,4.18,197.02,3048.32,0.0,0.131,0.517,0.931,69683.36,29.0,0,0,0.0,0.0,0.0,0.0,0.97,-22.0
2025-11-09T16:45:47.533793,227,-3.05,4.91,196.82,3048.32,0.0,0.119,0.519,0.853,69683.36,28.97,0,0,0.0,0.0,0.0,0.0,0.97,-22.0
2025-11-09T16:45:47.632434,228,-3.16,5.72,196.62,3048.32,0.0,0.119,0.528,0.824,69683.36,29.0,0,0,0.0,0.0,0.0,0.0,0.97,-22.0
2025-11-09T16:45:47.734375,229,-3.24,6.55,196.42,3048.32,0.0,0.087,0.592,0.829,69683.36,28.98,0,0,0.0,0.0,0.0,0.0,0.97,-22.0
2025-11-09T16:45:47.832950,230,-3.31,7.25,196.25,3048.32,0.0,0.083,0.545,0.861,69683.36,28.95,0,0,0.0,0.0,0.0,0.0,0.97,-22.0
2025-11-09T16:45:47.931778,231,-3.42,7.83,196.11,3048.32,0.0,0.118,0.476,0.872,69683.36,29.02,0,0,0.0,0.0,0.0,0.0,0.97,-22.0
2025-11-09T16:45:48.033620,232,-3.45,8.18,196.03,3048.32,0.0,0.084,0.36,0.979,69683.36,29.0,0,0,0.0,0.0,0.0,0.0,0.97,-24.0
2025-11-09T16:45:48.132119,233,-3.52,8.4,195.98,3048.32,0.0,0.098,0.248,1.003,69683.36,29.02,0,0,0.0,0.0,0.0,0.0,0.97,-23.0
2025-11-09T16:45:48.234141,234,-3.55,8.5,195.99,3048.32,0.0,0.064,0.196,1.088,69683.36,29.01,0,0,0.0,0.0,0.0,0.0,0.97,-23.0
2025-11-09T16:45:48.332748,235,-3.63,8.49,196.02,3048.32,0.0,0.103,0.197,1.0,69683.36,29.0,0,0,0.0,0.0,0.0,0.0,0.97,-24.0
2025-11-09T16:45:48.431502,236,-3.63,8.38,196.05,3048.32,0.0,0.05,0.113,1.001,69683.36,29.01,0,0,0.0,0.0,0.0,0.0,0.97,-24.0
2025-11-09T16:45:48.533387,237,-3.64,8.3,196.08,3048.32,0.0,0.059,0.091,1.027,69683.36,28.98,0,0,0.0,0.0,0.0,0.0,0.97,-24.0
2025-11-09T16:45:48.631974,238,-3.61,8.2,196.12,3048.32,0.0,0.114,0.026,0.96,69683.36,29.01,0,0,0.0,0.0,0.0,0.0,0.97,-23.0
2025-11-09T16:45:48.733855,239,-3.6,8.11,196.16,3048.32,0.0,0.025,0.122,1.114,69683.36,28.98,0,0,0.0,0.0,0.0,0.0,0.97,-24.0
2025-11-09T16:45:48.832600,240,-3.56,8.0,196.2,3048.32,0.0,0.025,0.114,1.102,69683.36,28.99,0,0,0.0,0.0,0.0,0.0,0.97,-24.0
2025-11-09T16:45:48.934457,241,-3.49,7.9,196.25,3048.32,0.0,0.046,0.099,1.031,69683.36,29.01,0,0,0.0,0.0,0.0,0.0,0.97,-24.0
2025-11-09T16:45:49.033019,242,-3.46,7.84,196.29,3048.32,0.0,0.026,0.112,1.081,69683.36,29.05,0,0,0.0,0.0,0.0,0.0,0.97,-24.0
2025-11-09T16:45:49.131827,243,-3.35,7.65,196.32,3048.32,0.0,-0.01,0.02,1.004,69683.36,28.96,0,0,0.0,0.0,0.0,0.0,0.97,-24.0
2025-11-09T16:45:49.233585,244,-3.25,7.47,196.36,3048.32,0.0,-0.021,0.039,1.009,69683.36,29.0,0,0,0.0,0.0,0.0,0.0,0.97,-24.0
2025-11-09T16:45:49.332325,245,-3.24,7.35,196.39,3048.32,0.0,0.02,0.026,1.081,69683.36,29.01,0,0,0.0,0.0,0.0,0.0,0.97,-24.0
2025-11-09T16:45:49.434251,246,-3.16,7.16,196.44,3048.32,0.0,0.002,0.025,1.055,69683.36,29.0,0,0,0.0,0.0,0.0,0.0,0.97,-23.0
2025-11-09T16:45:49.532901,247,-3.1,6.98,196.49,3048.32,0.0,0.007,0.015,1.073,69683.36,29.0,0,0,0.0,0.0,0.0,0.0,0.97,-24.0
2025-11-09T16:45:49.631532,248,-3.01,6.82,196.53,3048.32,0.0,0.003,0.028,1.046,69683.36,29.02,0,0,0.0,0.0,0.0,0.0,0.97,-24.0
2025-11-09T16:45:49.733578,249,-2.94,6.65,196.58,3048.32,0.0,0.004,-0.003,1.039,69683.36,29.03,0,0,0.0,0.0,0.0,0.0,0.97,-23.0
2025-11-09T16:45:49.831940,250,-2.86,6.49,196.61,3048.32,0.0,0.007,0.015,1.04,69683.36,29.03,0,0,0.0,0.0,0.0,0.0,0.97,-24.0
2025-11-09T16:45:49.933950,251,-2.78,6.32,196.66,3048.32,0.0,0.002,0.018,1.043,69683.36,28.98,0,0,0.0,0.0,0.0,0.0,0.97,-23.0
2025-11-09T16:45:50.032649,252,-2.71,6.16,196.69,3048.32,0.0,0.004,0.017,1.043,69683.36,29.03,0,0,0.0,0.0,0.0,0.0,0.97,-24.0
2025-11-09T16:45:50.134451,253,-2.64,6.01,196.73,3048.32,0.0,0.006,0.016,1.042,69683.36,29.02,0,0,0.0,0.0,0.0,0.0,0.97,-24.0
2025-11-09T16:45:50.233213,254,-2.57,5.86,196.76,3048.32,0.0,0.005,0.017,1.043,69683.36,28.98,0,0,0.0,0.0,0.0,0.0,0.97,-24.0
2025-11-09T16:45:50.331850,255,-2.5,5.71,196.8,3048.32,0.0,0.003,0.017,1.042,69683.36,29.02,0,0,0.0,0.0,0.0,0.0,0.97,-23.0
2025-11-09T16:45:50.433676,256,-2.44,5.57,196.83,3048.32,0.0,0.006,0.018,1.043,69683.36,29.02,0,0,0.0,0.0,0.0,0.0,0.97,-23.0
2025-11-09T16:45:50.532290,257,-2.38,5.43,196.85,3048.32,0.0,0.006,0.018,1.042,69683.36,28.98,0,0,0.0,0.0,0.0,0.0,0.97,-23.0
2025-11-09T16:45:50.634400,258,-2.32,5.3,196.87,3048.32,0.0,0.005,0.018,1.042,69683.36,29.01,0,0,0.0,0.0,0.0,0.0,0.97,-23.0
2025-11-09T16:45:50.733013,259,-2.26,5.17,196.9,3048.32,0.0,0.006,0.017,1.041,69683.36,28.97,0,0,0.0,0.0,0.0,0.0,0.97,-23.0
2025-11-09T16:45:50.831341,260,-2.2,5.05,196.92,3048.32,0.0,0.007,0.017,1.042,69683.36,28.97,0,0,0.0,0.0,0.0,0.0,0.97,-23.0
2025-11-09T16:45:50.933286,261,-2.14,4.92,196.97,3048.32,0.0,0.004,0.019,1.042,69683.36,29.0,0,0,0.0,0.0,0.0,0.0,0.97,-23.0
2025-11-09T16:45:51.031955,262,-2.09,4.81,197.0,3048.32,0.0,0.004,0.016,1.043,69683.36,29.0,0,0,0.0,0.0,0.0,0.0,0.97,-24.0
2025-11-09T16:45:51.133905,263,-2.03,4.69,197.04,3048.32,0.0,0.005,0.017,1.042,69683.36,28.97,0,0,0.0,0.0,0.0,0.0,0.97,-23.0
2025-11-09T16:45:51.232575,264,-1.98,4.58,197.07,3048.32,0.0,0.006,0.015,1.041,69683.36,28.98,0,0,0.0,0.0,0.0,0.0,0.97,-23.0
2025-11-09T16:45:51.334554,265,-1.93,4.47,197.1,3048.32,0.0,0.004,0.017,1.043,69683.36,28.98,0,0,0.0,0.0,0.0,0.0,0.97,-22.0
2025-11-09T16:45:51.433358,266,-1.88,4.37,197.14,3048.32,0.0,0.006,0.017,1.042,69683.36,28.96,0,0,0.0,0.0,0.0,0.0,0.97,-22.0
2025-11-09T16:45:51.531808,267,-1.84,4.27,197.15,3048.32,0.0,0.004,0.016,1.041,69683.36,28.97,0,0,0.0,0.0,0.0,0.0,0.97,-23.0
2025-11-09T16:45:51.633742,268,-1.79,4.17,197.15,3048.32,0.0,0.005,0.018,1.041,69683.36,28.98,0,0,0.0,0.0,0.0,0.0,0.97,-24.0
2025-11-09T16:45:51.732590,269,-1.75,4.07,197.14,3048.32,0.0,0.006,0.016,1.041,69683.36,29.03,0,0,0.0,0.0,0.0,0.0,0.97,-22.0
2025-11-09T16:45:51.834417,270,-1.7,3.98,197.16,3048.32,0.0,0.005,0.016,1.041,69683.36,28.98,0,0,0.0,0.0,0.0,0.0,0.97,-22.0
2025-11-09T16:45:51.932981,271,-1.66,3.89,197.16,3048.32,0.0,0.004,0.018,1.041,69683.36,28.96,0,0,0.0,0.0,0.0,0.0,0.97,-23.0
2025-11-09T16:45:52.034891,272,-1.62,3.8,197.18,3048.32,0.0,0.006,0.017,1.042,69683.36,28.99,0,0,0.0,0.0,0.0,0.0,0.97,-23.0
2025-11-09T16:45:52.133295,273,-1.58,3.72,197.19,3048.32,0.0,0.005,0.017,1.042,69683.36,28.94,0,0,0.0,0.0,0.0,0.0,0.97,-23.0
2025-11-09T16:45:52.231833,274,-1.54,3.63,197.19,3048.32,0.0,0.004,0.017,1.043,69683.36,28.96,0,0,0.0,0.0,0.0,0.0,0.97,-23.0
2025-11-09T16:45:52.334064,275,-1.51,3.55,197.19,3048.32,0.0,0.005,0.019,1.039,69683.36,29.0,0,0,0.0,0.0,0.0,0.0,0.97,-23.0
2025-11-09T16:45:52.432749,276,-1.47,3.48,197.22,3048.32,0.0,0.004,0.018,1.04,69683.36,28.98,0,0,0.0,0.0,0.0,0.0,0.97,-23.0
2025-11-09T16:45:52.534722,277,-1.43,3.4,197.25,3048.32,0.0,0.004,0.016,1.04,69683.36,28.95,0,0,0.0,0.0,0.0,0.0,0.97,-23.0
2025-11-09T16:45:52.633409,278,-1.4,3.33,197.25,3048.32,0.0,0.004,0.016,1.04,69683.36,28.93,0,0,0.0,0.0,0.0,0.0,0.97,-23.0
2025-11-09T16:45:52.731873,279,-1.37,3.26,197.28,3048.32,0.0,0.004,0.016,1.042,69683.36,28.97,0,0,0.0,0.0,0.0,0.0,0.97,-22.0
2025-11-09T16:45:52.833883,280,-1.34,3.19,197.29,3048.32,0.0,0.003,0.016,1.043,69683.36,28.95,0,0,0.0,0.0,0.0,0.0,0.97,-22.0
2025-11-09T16:45:52.932437,281,-1.31,3.12,197.32,3048.32,0.0,0.004,0.018,1.042,69683.36,28.96,0,0,0.0,0.0,0.0,0.0,0.97,-23.0
2025-11-09T16:45:53.034559,282,-1.27,3.06,197.32,3048.32,0.0,0.004,0.017,1.043,69683.36,28.97,0,0,0.0,0.0,0.0,0.0,0.97,-23.0
2025-11-09T16:45:53.133246,283,-1.25,3.0,197.34,3048.32,0.0,0.005,0.016,1.039,69683.36,28.97,0,0,0.0,0.0,0.0,0.0,0.97,-22.0
2025-11-09T16:45:53.235095,284,-1.22,2.94,197.35,3048.32,0.0,0.004,0.015,1.041,69683.36,28.99,0,0,0.0,0.0,0.0,0.0,0.97,-22.0
2025-11-09T16:45:53.333506,285,-1.19,2.88,197.38,3048.32,0.0,0.004,0.017,1.042,69683.36,28.97,0,0,0.0,0.0,0.0,0.0,0.97,-23.0
2025-11-09T16:45:53.432500,286,-1.16,2.82,197.39,3048.32,0.0,0.005,0.016,1.041,69683.36,28.94,0,0,0.0,0.0,0.0,0.0,0.97,-22.0
2025-11-09T16:45:53.534214,287,-1.14,2.76,197.4,3048.32,0.0,0.005,0.016,1.041,69683.36,28.99,0,0,0.0,0.0,0.0,0.0,0.97,-22.0
2025-11-09T16:45:53.632719,288,-1.11,2.71,197.41,3048.32,0.0,0.003,0.015,1.042,69683.36,29.0,0,0,0.0,0.0,0.0,0.0,0.97,-23.0
2025-11-09T16:45:53.734654,289,-1.09,2.65,197.42,3048.32,0.0,0.005,0.017,1.042,69683.36,28.96,0,0,0.0,0.0,0.0,0.0,0.97,-23.0
2025-11-09T16:45:53.833425,290,-1.06,2.6,197.43,3048.32,0.0,0.005,0.016,1.043,69683.36,28.97,0,0,0.0,0.0,0.0,0.0,0.97,-22.0
2025-11-09T16:45:53.931880,291,-1.04,2.55,197.42,3048.32,0.0,0.002,0.017,1.054,69683.36,28.96,0,0,0.0,0.0,0.0,0.0,0.97,-22.0
2025-11-09T16:45:54.033894,292,-1.02,2.51,197.43,3048.32,0.0,0.004,0.017,1.039,69683.36,28.96,0,0,0.0,0.0,0.0,0.0,0.97,-22.0
2025-11-09T16:45:54.132360,293,-0.99,2.46,197.44,3048.32,0.0,0.004,0.015,1.042,69683.36,28.96,0,0,0.0,0.0,0.0,0.0,0.97,-23.0
2025-11-09T16:45:54.234442,294,-0.97,2.41,197.45,3048.32,0.0,0.004,0.017,1.043,69683.36,28.97,0,0,0.0,0.0,0.0,0.0,0.97,-22.0
2025-11-09T16:45:54.333216,295,-0.95,2.37,197.47,3048.32,0.0,0.004,0.016,1.043,69683.36,28.97,0,0,0.0,0.0,0.0,0.0,0.97,-22.0
2025-11-09T16:45:54.431676,296,-0.93,2.33,197.46,3048.32,0.0,0.004,0.017,1.05,69683.36,28.96,0,0,0.0,0.0,0.0,0.0,0.97,-23.0
2025-11-09T16:45:54.533541,297,-0.92,2.28,197.46,3048.32,0.0,0.005,0.017,1.039,69683.36,28.98,0,0,0.0,0.0,0.0,0.0,0.97,-22.0
2025-11-09T16:45:54.632221,298,-0.9,2.24,197.46,3048.32,0.0,0.005,0.017,1.041,69683.36,28.96,0,0,0.0,0.0,0.0,0.0,0.97,-22.0
2025-11-09T16:45:54.734227,299,-0.88,2.2,197.45,3048.32,0.0,0.004,0.016,1.042,69683.36,28.96,0,0,0.0,0.0,0.0,0.0,0.97,-22.0
2025-11-09T16:45:54.832851,300,-0.86,2.17,197.45,3048.32,0.0,0.005,0.016,1.036,69683.36,28.95,0,0,0.0,0.0,0.0,0.0,0.97,-22.0
2025-11-09T16:45:54.934753,301,-0.84,2.13,197.45,3048.32,0.0,0.004,0.015,1.044,69683.36,28.96,0,0,0.0,0.0,0.0,0.0,0.97,-23.0
2025-11-09T16:45:55.033765,302,-0.83,2.09,197.46,3048.32,0.0,0.006,0.016,1.044,69683.36,28.95,0,0,0.0,0.0,0.0,0.0,0.97,-22.0
2025-11-09T16:45:55.132034,303,-0.81,2.06,197.45,3048.32,0.0,0.004,0.016,1.04,69683.36,28.99,0,0,0.0,0.0,0.0,0.0,0.97,-23.0
2025-11-09T16:45:55.233962,304,-0.8,2.03,197.45,3048.32,0.0,0.006,0.016,1.038,69683.36,28.96,0,0,0.0,0.0,0.0,0.0,0.97,-22.0
2025-11-09T16:45:55.332709,305,-0.78,1.99,197.45,3048.32,0.0,0.005,0.017,1.041,69683.36,28.94,0,0,0.0,0.0,0.0,0.0,0.97,-22.0
2025-11-09T16:45:55.434673,306,-0.77,1.96,197.45,3048.32,0.0,0.004,0.018,1.041,69683.36,28.96,0,0,0.0,0.0,0.0,0.0,0.97,-22.0
2025-11-09T16:45:55.533132,307,-0.75,1.93,197.44,3048.32,0.0,0.006,0.015,1.041,69683.36,28.97,0,0,0.0,0.0,0.0,0.0,0.97,-23.0
2025-11-09T16:45:55.631658,308,-0.74,1.9,197.46,3048.32,0.0,0.004,0.018,1.043,69683.36,28.97,0,0,0.0,0.0,0.0,0.0,0.97,-22.0
2025-11-09T16:45:55.733738,309,-0.73,1.87,197.49,3048.32,0.0,0.004,0.016,1.043,69683.36,28.96,0,0,0.0,0.0,0.0,0.0,0.97,-22.0
2025-11-09T16:45:55.832413,310,-0.71,1.85,197.5,3048.32,0.0,0.005,0.017,1.041,69683.36,28.96,0,0,0.0,0.0,0.0,0.0,0.97,-22.0
2025-11-09T16:45:55.934369,311,-0.7,1.82,197.49,3048.32,0.0,0.004,0.017,1.043,69683.36,28.98,0,0,0.0,0.0,0.0,0.0,0.97,-23.0
2025-11-09T16:45:56.032934,312,-0.69,1.79,197.49,3048.32,0.0,0.005,0.015,1.046,69683.36,28.94,0,0,0.0,0.0,0.0,0.0,0.97,-23.0
2025-11-09T16:45:56.136232,313,-0.68,1.77,197.51,3048.32,0.0,0.004,0.017,1.041,69683.36,28.95,0,0,0.0,0.0,0.0,0.0,0.97,-23.0
2025-11-09T16:45:56.233434,314,-0.67,1.74,197.51,3048.32,0.0,0.005,0.019,1.042,69683.36,28.95,0,0,0.0,0.0,0.0,0.0,0.97,-22.0
2025-11-09T16:45:56.332256,315,-0.66,1.72,197.52,3048.32,0.0,0.004,0.017,1.042,69683.36,28.96,0,0,0.0,0.0,0.0,0.0,0.97,-24.0
2025-11-09T16:45:56.434093,316,-0.65,1.69,197.53,3048.32,0.0,0.004,0.018,1.041,69683.36,28.96,0,0,0.0,0.0,0.0,0.0,0.97,-23.0
2025-11-09T16:45:56.532816,317,-0.64,1.67,197.53,3048.32,0.0,0.005,0.016,1.041,69683.36,28.94,0,0,0.0,0.0,0.0,0.0,0.97,-23.0
2025-11-09T16:45:56.634695,318,-0.63,1.65,197.51,3048.32,0.0,0.005,0.016,1.044,69683.36,29.02,0,0,0.0,0.0,0.0,0.0,0.97,-22.0
2025-11-09T16:45:56.733344,319,-0.62,1.63,197.52,3048.32,0.0,0.002,0.017,1.042,69683.36,28.97,0,0,0.0,0.0,0.0,0.0,0.97,-22.0
2025-11-09T16:45:56.831959,320,-0.61,1.61,197.53,3048.32,0.0,0.004,0.017,1.043,69683.36,28.95,0,0,0.0,0.0,0.0,0.0,0.97,-22.0
2025-11-09T16:45:56.933784,321,-0.6,1.58,197.53,3048.32,0.0,0.006,0.016,1.044,69683.36,28.96,0,0,0.0,0.0,0.0,0.0,0.97,-22.0
2025-11-09T16:45:57.032294,322,-0.59,1.56,197.54,3048.32,0.0,0.007,0.012,1.036,69683.36,28.97,0,0,0.0,0.0,0.0,0.0,0.97,-22.0
2025-11-09T16:45:57.134174,323,-0.58,1.54,197.55,3048.32,0.0,0.006,0.017,1.047,69683.36,28.98,0,0,0.0,0.0,0.0,0.0,0.97,-22.0
2025-11-09T16:45:57.232601,324,-0.58,1.52,197.58,3048.32,0.0,0.006,0.016,1.04,69683.36,28.96,0,0,0.0,0.0,0.0,0.0,0.97,-23.0
2025-11-09T16:45:57.334852,325,-0.57,1.51,197.59,3048.32,0.0,0.004,0.017,1.041,69683.36,28.99,0,0,0.0,0.0,0.0,0.0,0.97,-24.0
2025-11-09T16:45:57.433375,326,-0.56,1.49,197.58,3048.32,0.0,0.005,0.015,1.043,69683.36,28.95,0,0,0.0,0.0,0.0,0.0,0.97,-23.0
2025-11-09T16:45:57.532223,327,-0.55,1.47,197.59,3048.32,0.0,0.006,0.015,1.042,69683.36,28.94,0,0,0.0,0.0,0.0,0.0,0.97,-22.0
2025-11-09T16:45:57.634061,328,-0.55,1.45,197.59,3048.32,0.0,0.005,0.016,1.042,69683.36,28.97,0,0,0.0,0.0,0.0,0.0,0.97,-22.0
2025-11-09T16:45:57.732666,329,-0.54,1.44,197.57,3048.32,0.0,0.004,0.018,1.043,69683.36,28.97,0,0,0.0,0.0,0.0,0.0,0.97,-22.0
2025-11-09T16:45:57.834684,330,-0.53,1.42,197.56,3048.32,0.0,0.002,0.018,1.042,69683.36,29.0,0,0,0.0,0.0,0.0,0.0,0.97,-23.0
2025-11-09T16:45:57.933364,331,-0.52,1.41,197.53,3048.32,0.0,0.007,0.017,1.042,69683.36,29.0,0,0,0.0,0.0,0.0,0.0,0.97,-22.0
2025-11-09T16:45:58.031675,332,-0.52,1.39,197.52,3048.32,0.0,0.005,0.016,1.043,69683.36,29.0,0,0,0.0,0.0,0.0,0.0,0.97,-22.0
2025-11-09T16:45:58.133917,333,-0.51,1.38,197.53,3048.32,0.0,0.005,0.016,1.042,69683.36,28.93,0,0,0.0,0.0,0.0,0.0,0.97,-23.0
2025-11-09T16:45:58.232226,334,-0.5,1.36,197.54,3048.32,0.0,0.004,0.016,1.041,69683.36,28.89,0,0,0.0,0.0,0.0,0.0,0.97,-23.0
2025-11-09T16:45:58.334399,335,-0.5,1.35,197.54,3048.32,0.0,0.004,0.02,1.045,69683.36,28.96,0,0,0.0,0.0,0.0,0.0,0.97,-22.0
2025-11-09T16:45:58.432988,336,-0.49,1.34,197.54,3048.32,0.0,0.007,0.016,1.042,69683.36,29.0,0,0,0.0,0.0,0.0,0.0,0.97,-23.0
2025-11-09T16:45:58.535041,337,-0.49,1.32,197.53,3048.32,0.0,0.005,0.015,1.043,69683.36,28.98,0,0,0.0,0.0,0.0,0.0,0.97,-23.0
2025-11-09T16:45:58.633622,338,-0.48,1.31,197.54,3048.32,0.0,0.006,0.014,1.043,69683.36,29.03,0,0,0.0,0.0,0.0,0.0,0.97,-23.0
2025-11-09T16:45:58.732283,339,-0.48,1.3,197.55,3048.32,0.0,0.004,0.014,1.041,69683.36,28.99,0,0,0.0,0.0,0.0,0.0,0.97,-23.0
2025-11-09T16:45:58.834255,340,-0.47,1.29,197.56,3048.32,0.0,0.006,0.016,1.042,69683.36,28.98,0,0,0.0,0.0,0.0,0.0,0.97,-23.0
2025-11-09T16:45:58.932782,341,-0.47,1.27,197.57,3048.32,0.0,0.006,0.017,1.041,69683.36,29.0,0,0,0.0,0.0,0.0,0.0,0.97,-23.0
2025-11-09T16:45:59.034718,342,-0.47,1.26,197.58,3048.32,0.0,0.005,0.017,1.042,69683.36,28.96,0,0,0.0,0.0,0.0,0.0,0.97,-24.0
2025-11-09T16:45:59.133158,343,-0.46,1.25,197.56,3048.32,0.0,0.006,0.016,1.044,69683.36,28.96,0,0,0.0,0.0,0.0,0.0,0.97,-23.0
2025-11-09T16:45:59.235286,344,-0.46,1.24,197.57,3048.32,0.0,0.005,0.015,1.041,69683.36,28.96,0,0,0.0,0.0,0.0,0.0,0.97,-23.0
2025-11-09T16:45:59.333878,345,-0.45,1.23,197.57,3048.32,0.0,0.005,0.017,1.044,69683.36,28.96,0,0,0.0,0.0,0.0,0.0,0.97,-23.0
2025-11-09T16:45:59.432678,346,-0.45,1.22,197.55,3048.32,0.0,0.005,0.017,1.042,69683.36,29.02,0,0,0.0,0.0,0.0,0.0,0.97,-22.0
2025-11-09T16:45:59.534537,347,-0.44,1.21,197.54,3048.32,0.0,0.004,0.016,1.042,69683.36,28.96,0,0,0.0,0.0,0.0,0.0,0.97,-22.0
2025-11-09T16:45:59.633057,348,-0.44,1.2,197.56,3048.32,0.0,0.005,0.016,1.041,69683.36,28.96,0,0,0.0,0.0,0.0,0.0,0.97,-23.0
2025-11-09T16:45:59.735003,349,-0.44,1.19,197.55,3048.32,0.0,0.007,0.017,1.042,69683.36,28.96,0,0,0.0,0.0,0.0,0.0,0.97,-23.0
2025-11-09T16:45:59.833662,350,-0.43,1.18,197.54,3048.32,0.0,0.005,0.015,1.043,69683.36,29.0,0,0,0.0,0.0,0.0,0.0,0.97,-22.0
2025-11-09T16:45:59.932283,351,-0.43,1.17,197.55,3048.32,0.0,0.005,0.016,1.042,69683.36,28.96,0,0,0.0,0.0,0.0,0.0,0.97,-22.0
2025-11-09T16:46:00.034245,352,-0.43,1.16,197.53,3048.32,0.0,0.005,0.017,1.043,69683.36,29.02,0,0,0.0,0.0,0.0,0.0,0.97,-22.0
2025-11-09T16:46:00.132847,353,-0.42,1.15,197.52,3048.32,0.0,0.005,0.017,1.043,69683.36,28.95,0,0,0.0,0.0,0.0,0.0,0.97,-22.0
2025-11-09T16:46:00.234676,354,-0.42,1.14,197.53,3048.32,0.0,0.006,0.018,1.042,69683.36,28.98,0,0,0.0,0.0,0.0,0.0,0.97,-22.0
2025-11-09T16:46:00.333397,355,-0.42,1.14,197.54,3048.32,0.0,0.005,0.015,1.042,69683.36,28.98,0,0,0.0,0.0,0.0,0.0,0.97,-23.0
2025-11-09T16:46:00.435331,356,-0.42,1.13,197.55,3048.32,0.0,0.005,0.015,1.041,69683.36,28.99,0,0,0.0,0.0,0.0,0.0,0.97,-23.0
2025-11-09T16:46:00.533986,357,-0.41,1.12,197.55,3048.32,0.0,0.006,0.019,1.044,69683.36,28.98,0,0,0.0,0.0,0.0,0.0,0.97,-22.0
2025-11-09T16:46:00.632730,358,-0.41,1.09,197.56,3048.32,0.0,0.014,-0.022,1.04,69683.36,28.96,0,0,0.0,0.0,0.0,0.0,0.97,-23.0
2025-11-09T16:46:00.734550,359,-0.41,1.08,197.58,3048.32,0.0,0.006,0.016,1.042,69683.36,28.98,0,0,0.0,0.0,0.0,0.0,0.97,-23.0
2025-11-09T16:46:00.833147,360,-0.41,1.08,197.58,3048.32,0.0,0.006,0.017,1.042,69683.36,29.0,0,0,0.0,0.0,0.0,0.0,0.97,-23.0
2025-11-09T16:46:00.935094,361,-0.41,1.07,197.59,3048.32,0.0,0.005,0.017,1.041,69683.36,28.95,0,0,0.0,0.0,0.0,0.0,0.97,-23.0
2025-11-09T16:46:01.033590,362,-0.4,1.07,197.58,3048.32,0.0,0.004,0.016,1.041,69683.36,28.97,0,0,0.0,0.0,0.0,0.0,0.97,-22.0
2025-11-09T16:46:01.132332,363,-0.4,1.06,197.58,3048.32,0.0,0.004,0.017,1.041,69683.36,28.96,0,0,0.0,0.0,0.0,0.0,0.97,-23.0
2025-11-09T16:46:01.234364,364,-0.4,1.06,197.57,3048.32,0.0,0.005,0.016,1.044,69683.36,28.97,0,0,0.0,0.0,0.0,0.0,0.97,-23.0
2025-11-09T16:46:01.332961,365,-0.39,1.05,197.58,3048.32,0.0,0.005,0.017,1.042,69683.36,28.97,0,0,0.0,0.0,0.0,0.0,0.97,-23.0
2025-11-09T16:46:01.434892,366,-0.39,1.05,197.59,3048.32,0.0,0.005,0.015,1.037,69683.36,29.01,0,0,0.0,0.0,0.0,0.0,0.97,-23.0
2025-11-09T16:46:01.533627,367,-0.39,1.04,197.59,3048.32,0.0,0.005,0.016,1.04,69683.36,28.99,0,0,0.0,0.0,0.0,0.0,0.97,-23.0
2025-11-09T16:46:01.635451,368,-0.39,1.04,197.6,3048.32,0.0,0.007,0.015,1.041,69683.36,28.95,0,0,0.0,0.0,0.0,0.0,0.97,-23.0
2025-11-09T16:46:01.734136,369,-0.39,1.03,197.61,3048.32,0.0,0.005,0.015,1.041,69683.36,28.95,0,0,0.0,0.0,0.0,0.0,0.97,-23.0
2025-11-09T16:46:01.832915,370,-0.39,1.03,197.63,3048.32,0.0,0.006,0.015,1.042,69683.36,28.98,0,0,0.0,0.0,0.0,0.0,0.97,-23.0
2025-11-09T16:46:01.934609,371,-0.38,1.02,197.65,3048.32,0.0,0.005,0.015,1.041,69683.36,29.0,0,0,0.0,0.0,0.0,0.0,0.97,-23.0
2025-11-09T16:46:02.033213,372,-0.38,1.02,197.65,3048.32,0.0,0.006,0.016,1.04,69683.36,28.97,0,0,0.0,0.0,0.0,0.0,0.97,-23.0
2025-11-09T16:46:02.135211,373,-0.38,1.01,197.66,3048.32,0.0,0.005,0.015,1.042,69683.36,28.94,0,0,0.0,0.0,0.0,0.0,0.97,-23.0
2025-11-09T16:46:02.233614,374,-0.38,1.01,197.67,3048.32,0.0,0.005,0.014,1.043,69683.36,28.99,0,0,0.0,0.0,0.0,0.0,0.97,-23.0
2025-11-09T16:46:02.332321,375,-0.38,1.0,197.67,3048.32,0.0,0.004,0.015,1.041,69683.36,28.96,0,0,0.0,0.0,0.0,0.0,0.97,-23.0
2025-11-09T16:46:02.434434,376,-0.38,1.0,197.69,3048.32,0.0,0.005,0.015,1.043,69683.36,29.0,0,0,0.0,0.0,0.0,0.0,0.97,-23.0
2025-11-09T16:46:02.533055,377,-0.38,1.0,197.69,3048.32,0.0,0.005,0.017,1.04,69683.36,28.98,0,0,0.0,0.0,0.0,0.0,0.97,-23.0
2025-11-09T16:46:02.635005,378,-0.38,0.99,197.69,3048.32,0.0,0.005,0.014,1.041,69683.36,28.91,0,0,0.0,0.0,0.0,0.0,0.97,-23.0
2025-11-09T16:46:02.733613,379,-0.38,0.99,197.7,3048.32,0.0,0.005,0.014,1.041,69683.36,28.94,0,0,0.0,0.0,0.0,0.0,0.97,-24.0
2025-11-09T16:46:02.835483,380,-0.37,0.98,197.7,3048.32,0.0,0.004,0.015,1.042,69683.36,28.98,0,0,0.0,0.0,0.0,0.0,0.97,-23.0
2025-11-09T16:46:02.934145,381,-0.37,0.98,197.72,3048.32,0.0,0.006,0.017,1.042,69683.36,29.0,0,0,0.0,0.0,0.0,0.0,0.97,-23.0
2025-11-09T16:46:03.032857,382,-0.37,0.98,197.73,3048.32,0.0,0.006,0.013,1.041,69683.36,28.95,0,0,0.0,0.0,0.0,0.0,0.97,-22.0
2025-11-09T16:46:03.134772,383,-0.37,0.97,197.72,3048.32,0.0,0.006,0.016,1.041,69683.36,28.96,0,0,0.0,0.0,0.0,0.0,0.97,-23.0
2025-11-09T16:46:03.233416,384,-0.37,0.97,197.72,3048.32,0.0,0.006,0.017,1.043,69683.36,28.93,0,0,0.0,0.0,0.0,0.0,0.97,-23.0
2025-11-09T16:46:03.335314,385,-0.37,0.96,197.74,3048.32,0.0,0.006,0.014,1.041,69683.36,28.98,0,0,0.0,0.0,0.0,0.0,0.97,-23.0
2025-11-09T16:46:03.433986,386,-0.37,0.96,197.76,3048.32,0.0,0.013,0.012,1.039,69683.36,28.98,0,0,0.0,0.0,0.0,0.0,0.97,-23.0
2025-11-09T16:46:03.535831,387,-0.37,0.96,197.77,3048.32,0.0,0.003,0.015,1.04,69683.36,28.95,0,0,0.0,0.0,0.0,0.0,0.97,-22.0
2025-11-09T16:46:03.634464,388,-0.37,0.95,197.77,3048.32,0.0,0.006,0.016,1.042,69683.36,28.98,0,0,0.0,0.0,0.0,0.0,0.97,-23.0
2025-11-09T16:46:03.733093,389,-0.36,0.95,197.8,3048.32,0.0,0.007,0.015,1.042,69683.36,28.96,0,0,0.0,0.0,0.0,0.0,0.97,-22.0
2025-11-09T16:46:03.835017,390,-0.36,0.95,197.8,3048.32,0.0,0.005,0.013,1.043,69683.36,28.96,0,0,0.0,0.0,0.0,0.0,0.97,-22.0
2025-11-09T16:46:03.933619,391,-0.36,0.94,197.81,3048.32,0.0,0.006,0.014,1.043,69683.36,28.95,0,0,0.0,0.0,0.0,0.0,0.97,-22.0
2025-11-09T16:46:04.035583,392,-0.36,0.94,197.83,3048.32,0.0,0.005,0.014,1.043,69683.36,28.98,0,0,0.0,0.0,0.0,0.0,0.97,-23.0
2025-11-09T16:46:04.134236,393,-0.36,0.94,197.84,3048.32,0.0,0.003,0.015,1.041,69683.36,28.99,0,0,0.0,0.0,0.0,0.0,0.97,-22.0
2025-11-09T16:46:04.232839,394,-0.36,0.93,197.85,3048.32,0.0,0.006,0.016,1.043,69683.36,29.0,0,0,0.0,0.0,0.0,0.0,0.97,-23.0
2025-11-09T16:46:04.334706,395,-0.36,0.93,197.86,3048.32,0.0,0.004,0.015,1.043,69683.36,28.97,0,0,0.0,0.0,0.0,0.0,0.97,-23.0
2025-11-09T16:46:04.433419,396,-0.36,0.93,197.87,3048.32,0.0,0.007,0.017,1.041,69683.36,28.98,0,0,0.0,0.0,0.0,0.0,0.97,-22.0
2025-11-09T16:46:04.535379,397,-0.36,0.93,197.88,3048.32,0.0,0.006,0.016,1.042,69683.36,28.96,0,0,0.0,0.0,0.0,0.0,0.97,-23.0
2025-11-09T16:46:04.633983,398,-0.36,0.92,197.88,3048.32,0.0,0.005,0.015,1.041,69683.36,28.96,0,0,0.0,0.0,0.0,0.0,0.97,-22.0
2025-11-09T16:46:04.735903,399,-0.35,0.92,197.87,3048.32,0.0,0.005,0.015,1.041,69683.36,28.99,0,0,0.0,0.0,0.0,0.0,0.97,-23.0
2025-11-09T16:46:04.834605,400,-0.35,0.92,197.87,3048.32,0.0,0.005,0.014,1.044,69683.36,28.98,0,0,0.0,0.0,0.0,0.0,0.97,-22.0
2025-11-09T16:46:04.933203,401,-0.35,0.92,197.87,3048.32,0.0,0.004,0.015,1.043,69683.36,28.97,0,0,0.0,0.0,0.0,0.0,0.97,-22.0
2025-11-09T16:46:05.035166,402,-0.35,0.91,197.87,3048.32,0.0,0.006,0.015,1.041,69683.36,28.97,0,0,0.0,0.0,0.0,0.0,0.97,-22.0
2025-11-09T16:46:05.133675,403,-0.35,0.91,197.88,3048.32,0.0,0.004,0.015,1.041,69683.36,28.96,0,0,0.0,0.0,0.0,0.0,0.97,-23.0
2025-11-09T16:46:05.235623,404,-0.35,0.91,197.89,3048.32,0.0,0.005,0.016,1.042,69683.36,28.97,0,0,0.0,0.0,0.0,0.0,0.97,-22.0
2025-11-09T16:46:05.334326,405,-0.35,0.91,197.88,3048.32,0.0,0.003,0.016,1.043,69683.36,28.95,0,0,0.0,0.0,0.0,0.0,0.97,-22.0
2025-11-09T16:46:05.432960,406,-0.35,0.91,197.88,3048.32,0.0,0.006,0.016,1.043,69683.36,28.99,0,0,0.0,0.0,0.0,0.0,0.97,-23.0
2025-11-09T16:46:05.534867,407,-0.35,0.9,197.86,3048.32,0.0,0.007,0.013,1.044,69683.36,28.97,0,0,0.0,0.0,0.0,0.0,0.97,-22.0
2025-11-09T16:46:05.633623,408,-0.35,0.9,197.86,3048.32,0.0,0.005,0.017,1.041,69683.36,28.96,0,0,0.0,0.0,0.0,0.0,0.97,-23.0
2025-11-09T16:46:05.735480,409,-0.35,0.9,197.87,3048.32,0.0,0.006,0.017,1.042,69683.36,29.01,0,0,0.0,0.0,0.0,0.0,0.97,-22.0
2025-11-09T16:46:05.834151,410,-0.34,0.9,197.86,3048.32,0.0,0.007,0.018,1.041,69683.36,28.98,0,0,0.0,0.0,0.0,0.0,0.97,-23.0
2025-11-09T16:46:05.935924,411,-0.34,0.9,197.89,3048.32,0.0,0.006,0.016,1.042,69683.36,28.96,0,0,0.0,0.0,0.0,0.0,0.97,-23.0
2025-11-09T16:46:06.034713,412,-0.34,0.9,197.87,3048.32,0.0,0.006,0.015,1.042,69683.36,28.96,0,0,0.0,0.0,0.0,0.0,0.97,-22.0
2025-11-09T16:46:06.133240,413,-0.34,0.89,197.85,3048.32,0.0,0.006,0.015,1.04,69683.36,28.98,0,0,0.0,0.0,0.0,0.0,0.97,-24.0
2025-11-09T16:46:06.235180,414,-0.34,0.89,197.85,3048.32,0.0,0.005,0.015,1.043,69683.36,28.95,0,0,0.0,0.0,0.0,0.0,0.97,-24.0
2025-11-09T16:46:06.333585,415,-0.34,0.89,197.84,3048.32,0.0,0.006,0.016,1.042,69683.36,28.97,0,0,0.0,0.0,0.0,0.0,0.97,-23.0
2025-11-09T16:46:06.435722,416,-0.34,0.89,197.85,3048.32,0.0,0.005,0.015,1.042,69683.36,28.96,0,0,0.0,0.0,0.0,0.0,0.97,-24.0
2025-11-09T16:46:06.534432,417,-0.34,0.89,197.85,3048.32,0.0,0.007,0.015,1.041,69683.36,28.97,0,0,0.0,0.0,0.0,0.0,0.97,-23.0
2025-11-09T16:46:06.632984,418,-0.34,0.89,197.85,3048.32,0.0,0.005,0.017,1.043,69683.36,28.98,0,0,0.0,0.0,0.0,0.0,0.97,-23.0
2025-11-09T16:46:06.734946,419,-0.34,0.89,197.86,3048.32,0.0,0.005,0.014,1.043,69683.36,28.97,0,0,0.0,0.0,0.0,0.0,0.97,-22.0
2025-11-09T16:46:06.833683,420,-0.34,0.88,197.85,3048.32,0.0,0.004,0.015,1.041,69683.36,28.97,0,0,0.0,0.0,0.0,0.0,0.97,-22.0
2025-11-09T16:46:06.935523,421,-0.34,0.88,197.85,3048.32,0.0,0.005,0.015,1.042,69683.36,28.99,0,0,0.0,0.0,0.0,0.0,0.97,-22.0
2025-11-09T16:46:07.034214,422,-0.34,0.88,197.85,3048.32,0.0,0.004,0.015,1.043,69683.36,28.96,0,0,0.0,0.0,0.0,0.0,0.97,-23.0
2025-11-09T16:46:07.136086,423,-0.34,0.88,197.85,3048.32,0.0,0.006,0.016,1.043,69683.36,29.01,0,0,0.0,0.0,0.0,0.0,0.97,-23.0
2025-11-09T16:46:07.234749,424,-0.34,0.88,197.85,3048.32,0.0,0.005,0.014,1.041,69683.36,28.94,0,0,0.0,0.0,0.0,0.0,0.97,-22.0
2025-11-09T16:46:07.333356,425,-0.34,0.88,197.85,3048.32,0.0,0.005,0.016,1.042,69683.36,28.96,0,0,0.0,0.0,0.0,0.0,0.97,-23.0
2025-11-09T16:46:07.435413,426,-0.34,0.88,197.85,3048.32,0.0,0.005,0.015,1.042,69683.36,28.97,0,0,0.0,0.0,0.0,0.0,0.97,-22.0
2025-11-09T16:46:07.533957,427,-0.34,0.88,197.85,3048.32,0.0,0.006,0.015,1.042,69683.36,28.98,0,0,0.0,0.0,0.0,0.0,0.97,-22.0
2025-11-09T16:46:07.635835,428,-0.34,0.88,197.85,3048.32,0.0,0.007,0.015,1.041,69683.36,29.01,0,0,0.0,0.0,0.0,0.0,0.97,-23.0
2025-11-09T16:46:07.734528,429,-0.34,0.87,197.85,3048.32,0.0,0.006,0.016,1.041,69683.36,28.99,0,0,0.0,0.0,0.0,0.0,0.97,-21.0
2025-11-09T16:46:07.833151,430,-0.34,0.87,197.85,3048.32,0.0,0.005,0.017,1.042,69683.36,28.9,0,0,0.0,0.0,0.0,0.0,0.97,-22.0
2025-11-09T16:46:07.935090,431,-0.34,0.87,197.86,3048.32,0.0,0.005,0.015,1.042,69683.36,28.99,0,0,0.0,0.0,0.0,0.0,0.97,-21.0
2025-11-09T16:46:08.033784,432,-0.34,0.87,197.86,3048.32,0.0,0.007,0.015,1.041,69683.36,28.96,0,0,0.0,0.0,0.0,0.0,0.97,-22.0
2025-11-09T16:46:08.135604,433,-0.34,0.87,197.87,3048.32,0.0,0.006,0.015,1.044,69683.36,28.95,0,0,0.0,0.0,0.0,0.0,0.97,-22.0
2025-11-09T16:46:08.234292,434,-0.34,0.87,197.86,3048.32,0.0,0.006,0.016,1.042,69683.36,28.95,0,0,0.0,0.0,0.0,0.0,0.97,-22.0
2025-11-09T16:46:08.336065,435,-0.34,0.87,197.87,3048.32,0.0,0.005,0.015,1.043,69683.36,28.96,0,0,0.0,0.0,0.0,0.0,0.97,-22.0
2025-11-09T16:46:08.434750,436,-0.34,0.87,197.87,3048.32,0.0,0.007,0.016,1.042,69683.36,28.96,0,0,0.0,0.0,0.0,0.0,0.97,-22.0
2025-11-09T16:46:08.533415,437,-0.34,0.87,197.85,3048.32,0.0,0.005,0.015,1.043,69683.36,28.99,0,0,0.0,0.0,0.0,0.0,0.97,-22.0
2025-11-09T16:46:08.635477,438,-0.34,0.87,197.84,3048.32,0.0,0.004,0.017,1.042,69683.36,28.93,0,0,0.0,0.0,0.0,0.0,0.97,-22.0
2025-11-09T16:46:08.734008,439,-0.34,0.87,197.82,3048.32,0.0,0.006,0.015,1.04,69683.36,28.95,0,0,0.0,0.0,0.0,0.0,0.97,-22.0
2025-11-09T16:46:08.835944,440,-0.34,0.87,197.81,3048.32,0.0,0.004,0.015,1.042,69683.36,28.95,0,0,0.0,0.0,0.0,0.0,0.97,-22.0
2025-11-09T16:46:08.934537,441,-0.34,0.87,197.8,3048.32,0.0,0.005,0.016,1.041,69683.36,28.96,0,0,0.0,0.0,0.0,0.0,0.97,-22.0
2025-11-09T16:46:09.036552,442,-0.34,0.87,197.81,3048.32,0.0,0.004,0.013,1.042,69683.36,28.97,0,0,0.0,0.0,0.0,0.0,0.97,-22.0
2025-11-09T16:46:09.135242,443,-0.34,0.87,197.81,3048.32,0.0,0.005,0.016,1.043,69683.36,28.97,0,0,0.0,0.0,0.0,0.0,0.97,-22.0
2025-11-09T16:46:09.233712,444,-0.34,0.87,197.8,3048.32,0.0,0.006,0.016,1.042,69683.36,28.97,0,0,0.0,0.0,0.0,0.0,0.97,-23.0
2025-11-09T16:46:09.335759,445,-0.34,0.86,197.79,3048.32,0.0,0.005,0.016,1.042,69683.36,28.94,0,0,0.0,0.0,0.0,0.0,0.97,-22.0
2025-11-09T16:46:09.434344,446,-0.34,0.86,197.76,3048.32,0.0,0.004,0.017,1.042,69683.36,28.96,0,0,0.0,0.0,0.0,0.0,0.97,-22.0
2025-11-09T16:46:09.536296,447,-0.33,0.86,197.75,3048.32,0.0,0.005,0.015,1.042,69683.36,29.0,0,0,0.0,0.0,0.0,0.0,0.97,-23.0
2025-11-09T16:46:09.634960,448,-0.33,0.86,197.74,3048.32,0.0,0.006,0.016,1.043,69683.36,28.97,0,0,0.0,0.0,0.0,0.0,0.97,-21.0
2025-11-09T16:46:09.733501,449,-0.33,0.86,197.73,3048.32,0.0,0.004,0.015,1.041,69683.36,28.96,0,0,0.0,0.0,0.0,0.0,0.97,-23.0
2025-11-09T16:46:09.835498,450,-0.33,0.86,197.73,3048.32,0.0,0.006,0.015,1.041,69683.36,28.93,0,0,0.0,0.0,0.0,0.0,0.97,-21.0
2025-11-09T16:46:09.934160,451,-0.33,0.86,197.74,3048.32,0.0,0.005,0.016,1.041,69683.36,28.96,0,0,0.0,0.0,0.0,0.0,0.97,-22.0
2025-11-09T16:46:10.036040,452,-0.33,0.86,197.72,3048.32,0.0,0.005,0.015,1.04,69683.36,28.96,0,0,0.0,0.0,0.0,0.0,0.97,-21.0
2025-11-09T16:46:10.134627,453,-0.33,0.86,197.71,3048.32,0.0,0.007,0.015,1.042,69683.36,28.95,0,0,0.0,0.0,0.0,0.0,0.97,-22.0
2025-11-09T16:46:10.233309,454,-0.33,0.86,197.71,3048.32,0.0,0.005,0.014,1.042,69683.36,28.96,0,0,0.0,0.0,0.0,0.0,0.97,-22.0
2025-11-09T16:46:10.335295,455,-0.33,0.85,197.69,3048.32,0.0,0.004,0.013,1.04,69683.36,28.95,0,0,0.0,0.0,0.0,0.0,0.97,-21.0
2025-11-09T16:46:10.433653,456,-0.33,0.85,197.67,3048.32,0.0,0.003,0.014,1.043,69683.36,28.96,0,0,0.0,0.0,0.0,0.0,0.97,-22.0
2025-11-09T16:46:10.535679,457,-0.33,0.85,197.67,3048.32,0.0,0.006,0.014,1.042,69683.36,28.94,0,0,0.0,0.0,0.0,0.0,0.97,-22.0
2025-11-09T16:46:10.634349,458,-0.33,0.85,197.66,3048.32,0.0,0.005,0.017,1.042,69683.36,29.01,0,0,0.0,0.0,0.0,0.0,0.97,-22.0
2025-11-09T16:46:10.736326,459,-0.33,0.85,197.66,3048.32,0.0,0.004,0.015,1.042,69683.36,28.96,0,0,0.0,0.0,0.0,0.0,0.97,-22.0
2025-11-09T16:46:10.834922,460,-0.33,0.85,197.66,3048.32,0.0,0.006,0.016,1.041,69683.36,28.96,0,0,0.0,0.0,0.0,0.0,0.97,-22.0
2025-11-09T16:46:10.933574,461,-0.33,0.85,197.65,3048.32,0.0,0.004,0.015,1.043,69683.36,28.97,0,0,0.0,0.0,0.0,0.0,0.97,-23.0
2025-11-09T16:46:11.035610,462,-0.33,0.85,197.65,3048.32,0.0,0.006,0.015,1.041,69683.36,28.98,0,0,0.0,0.0,0.0,0.0,0.97,-22.0
2025-11-09T16:46:11.134111,463,-0.33,0.85,197.66,3048.32,0.0,0.004,0.016,1.042,69683.36,28.99,0,0,0.0,0.0,0.0,0.0,0.97,-22.0
2025-11-09T16:46:11.236038,464,-0.33,0.85,197.65,3048.32,0.0,0.005,0.016,1.042,69683.36,29.0,0,0,0.0,0.0,0.0,0.0,0.97,-23.0
2025-11-09T16:46:11.334686,465,-0.33,0.85,197.66,3048.32,0.0,0.005,0.016,1.043,69683.36,28.98,0,0,0.0,0.0,0.0,0.0,0.97,-22.0
2025-11-09T16:46:11.433325,466,-0.33,0.85,197.65,3048.32,0.0,0.004,0.015,1.041,69683.36,28.96,0,0,0.0,0.0,0.0,0.0,0.97,-22.0
2025-11-09T16:46:11.535335,467,-0.33,0.85,197.67,3048.32,0.0,0.005,0.015,1.042,69683.36,28.97,0,0,0.0,0.0,0.0,0.0,0.97,-21.0
2025-11-09T16:46:11.633848,468,-0.33,0.85,197.69,3048.32,0.0,0.005,0.015,1.042,69683.36,28.96,0,0,0.0,0.0,0.0,0.0,0.97,-22.0
2025-11-09T16:46:11.735784,469,-0.33,0.85,197.71,3048.32,0.0,0.003,0.014,1.041,69683.36,28.97,0,0,0.0,0.0,0.0,0.0,0.97,-23.0
2025-11-09T16:46:11.834410,470,-0.33,0.85,197.7,3048.32,0.0,0.005,0.015,1.041,69683.36,28.98,0,0,0.0,0.0,0.0,0.0,0.97,-22.0
2025-11-09T16:46:11.936430,471,-0.33,0.85,197.7,3048.32,0.0,0.005,0.015,1.043,69683.36,28.97,0,0,0.0,0.0,0.0,0.0,0.97,-23.0
2025-11-09T16:46:12.034977,472,-0.33,0.85,197.7,3048.32,0.0,0.005,0.016,1.044,69683.36,28.98,0,0,0.0,0.0,0.0,0.0,0.97,-22.0
2025-11-09T16:46:12.133591,473,-0.33,0.85,197.69,3048.32,0.0,0.004,0.016,1.041,69683.36,28.96,0,0,0.0,0.0,0.0,0.0,0.97,-22.0
2025-11-09T16:46:12.235576,474,-0.33,0.85,197.69,3048.32,0.0,0.006,0.015,1.043,69683.36,28.91,0,0,0.0,0.0,0.0,0.0,0.97,-23.0
2025-11-09T16:46:12.334223,475,-0.33,0.85,197.7,3048.32,0.0,0.005,0.015,1.042,69683.36,28.94,0,0,0.0,0.0,0.0,0.0,0.97,-22.0
2025-11-09T16:46:12.436059,476,-0.33,0.85,197.7,3048.32,0.0,0.006,0.015,1.041,69683.36,28.95,0,0,0.0,0.0,0.0,0.0,0.97,-23.0
2025-11-09T16:46:12.534761,477,-0.33,0.85,197.7,3048.32,0.0,0.004,0.017,1.042,69683.36,28.95,0,0,0.0,0.0,0.0,0.0,0.97,-23.0
2025-11-09T16:46:12.636680,478,-0.33,0.85,197.7,3048.32,0.0,0.005,0.016,1.043,69683.36,28.97,0,0,0.0,0.0,0.0,0.0,0.97,-23.0
2025-11-09T16:46:12.735336,479,-0.33,0.85,197.71,3048.32,0.0,0.005,0.018,1.042,69683.36,28.96,0,0,0.0,0.0,0.0,0.0,0.97,-23.0
2025-11-09T16:46:12.833965,480,-0.33,0.85,197.71,3048.32,0.0,0.005,0.016,1.041,69683.36,28.95,0,0,0.0,0.0,0.0,0.0,0.97,-22.0
2025-11-09T16:46:12.935915,481,-0.33,0.85,197.71,3048.32,0.0,0.006,0.014,1.043,69683.36,28.94,0,0,0.0,0.0,0.0,0.0,0.97,-23.0
2025-11-09T16:46:13.034609,482,-0.33,0.85,197.7,3048.32,0.0,0.005,0.015,1.043,69683.36,28.95,0,0,0.0,0.0,0.0,0.0,0.97,-23.0
2025-11-09T16:46:13.136489,483,-0.33,0.85,197.7,3048.32,0.0,0.008,0.017,1.034,69683.36,28.98,0,0,0.0,0.0,0.0,0.0,0.97,-23.0
2025-11-09T16:46:13.235205,484,-0.33,0.85,197.69,3048.32,0.0,0.009,0.018,1.044,69683.36,28.95,0,0,0.0,0.0,0.0,0.0,0.97,-22.0
2025-11-09T16:46:13.333783,485,-0.33,0.85,197.69,3048.32,0.0,0.003,0.015,1.045,69683.36,28.95,0,0,0.0,0.0,0.0,0.0,0.97,-23.0
2025-11-09T16:46:13.435674,486,-0.33,0.85,197.69,3048.32,0.0,0.008,0.014,1.041,69683.36,29.0,0,0,0.0,0.0,0.0,0.0,0.97,-23.0
2025-11-09T16:46:13.534328,487,-0.33,0.85,197.68,3048.32,0.0,0.004,0.016,1.042,69683.36,28.95,0,0,0.0,0.0,0.0,0.0,0.97,-23.0
2025-11-09T16:46:13.636241,488,-0.33,0.85,197.67,3048.32,0.0,0.003,0.016,1.041,69683.36,28.93,0,0,0.0,0.0,0.0,0.0,0.97,-23.0
2025-11-09T16:46:13.734873,489,-0.33,0.85,197.68,3048.32,0.0,0.008,0.016,1.041,69683.36,29.0,0,0,0.0,0.0,0.0,0.0,0.97,-23.0
2025-11-09T16:46:13.836824,490,-0.33,0.85,197.68,3048.32,0.0,0.005,0.015,1.041,69683.36,28.99,0,0,0.0,0.0,0.0,0.0,0.97,-23.0
2025-11-09T16:46:13.935541,491,-0.33,0.85,197.66,3048.32,0.0,0.003,0.014,1.043,69683.36,28.97,0,0,0.0,0.0,0.0,0.0,0.97,-23.0
2025-11-09T16:46:14.033969,492,-0.33,0.85,197.65,3048.32,0.0,0.007,0.017,1.042,69683.36,28.96,0,0,0.0,0.0,0.0,0.0,0.97,-22.0
2025-11-09T16:46:14.136020,493,-0.33,0.85,197.64,3048.32,0.0,0.004,0.016,1.043,69683.36,28.98,0,0,0.0,0.0,0.0,0.0,0.97,-23.0
2025-11-09T16:46:14.234608,494,-0.33,0.85,197.62,3048.32,0.0,0.005,0.015,1.041,69683.36,28.95,0,0,0.0,0.0,0.0,0.0,0.97,-23.0
2025-11-09T16:46:14.336656,495,-0.33,0.85,197.6,3048.32,0.0,0.005,0.016,1.043,69683.36,28.96,0,0,0.0,0.0,0.0,0.0,0.97,-22.0
2025-11-09T16:46:14.434948,496,-0.33,0.85,197.56,3048.32,0.0,0.005,0.015,1.042,69683.36,28.98,0,0,0.0,0.0,0.0,0.0,0.97,-22.0
2025-11-09T16:46:14.533560,497,-0.33,0.85,197.54,3048.32,0.0,0.004,0.015,1.042,69683.36,28.99,0,0,0.0,0.0,0.0,0.0,0.97,-22.0
2025-11-09T16:46:14.635606,498,-0.33,0.85,197.53,3048.32,0.0,0.006,0.016,1.042,69683.36,29.03,0,0,0.0,0.0,0.0,0.0,0.97,-23.0
2025-11-09T16:46:14.734139,499,-0.33,0.85,197.52,3048.32,0.0,0.005,0.016,1.041,69683.36,28.93,0,0,0.0,0.0,0.0,0.0,0.97,-23.0
2025-11-09T16:46:14.836406,500,-0.33,0.85,197.5,3048.32,0.0,0.005,0.017,1.041,69683.36,28.96,0,0,0.0,0.0,0.0,0.0,0.97,-22.0
2025-11-09T16:46:14.934898,501,-0.33,0.85,197.5,3048.32,0.0,0.005,0.016,1.04,69683.36,28.97,0,0,0.0,0.0,0.0,0.0,0.97,-22.0
2025-11-09T16:46:15.036839,502,-0.33,0.85,197.49,3048.32,0.0,0.006,0.016,1.041,69683.36,28.96,0,0,0.0,0.0,0.0,0.0,0.97,-23.0
2025-11-09T16:46:15.135571,503,-0.33,0.85,197.49,3048.32,0.0,0.005,0.016,1.042,69683.36,28.97,0,0,0.0,0.0,0.0,0.0,0.97,-22.0
2025-11-09T16:46:15.233982,504,-0.33,0.85,197.47,3048.32,0.0,0.006,0.016,1.041,69683.36,28.99,0,0,0.0,0.0,0.0,0.0,0.97,-23.0
2025-11-09T16:46:15.336012,505,-0.33,0.85,197.48,3048.32,0.0,0.005,0.018,1.043,69683.36,28.97,0,0,0.0,0.0,0.0,0.0,0.97,-23.0
2025-11-09T16:46:15.434435,506,-0.33,0.85,197.47,3048.32,0.0,0.006,0.017,1.042,69683.36,28.97,0,0,0.0,0.0,0.0,0.0,0.97,-23.0
2025-11-09T16:46:15.536575,507,-0.33,0.85,197.48,3048.32,0.0,0.007,0.017,1.041,69683.36,28.94,0,0,0.0,0.0,0.0,0.0,0.97,-22.0
2025-11-09T16:46:15.635041,508,-0.33,0.85,197.49,3048.32,0.0,0.005,0.015,1.042,69683.36,28.93,0,0,0.0,0.0,0.0,0.0,0.97,-22.0
2025-11-09T16:46:15.733876,509,-0.33,0.85,197.46,3048.32,0.0,0.005,0.015,1.042,69683.36,28.97,0,0,0.0,0.0,0.0,0.0,0.97,-22.0
2025-11-09T16:46:15.835756,510,-0.33,0.85,197.45,3048.32,0.0,0.006,0.015,1.042,69683.36,28.96,0,0,0.0,0.0,0.0,0.0,0.97,-22.0
2025-11-09T16:46:15.934162,511,-0.33,0.84,197.44,3048.32,0.0,0.005,0.014,1.04,69683.36,28.96,0,0,0.0,0.0,0.0,0.0,0.97,-22.0
2025-11-09T16:46:16.036457,512,-0.33,0.84,197.43,3048.32,0.0,0.006,0.015,1.04,69683.36,28.96,0,0,0.0,0.0,0.0,0.0,0.97,-22.0
2025-11-09T16:46:16.134882,513,-0.33,0.84,197.44,3048.32,0.0,0.005,0.016,1.043,69683.36,28.96,0,0,0.0,0.0,0.0,0.0,0.97,-23.0
2025-11-09T16:46:16.233395,514,-0.33,0.84,197.43,3048.32,0.0,0.006,0.015,1.039,69683.36,29.0,0,0,0.0,0.0,0.0,0.0,0.97,-22.0
2025-11-09T16:46:16.335433,515,-0.33,0.84,197.41,3048.32,0.0,0.006,0.016,1.041,69683.36,29.0,0,0,0.0,0.0,0.0,0.0,0.97,-23.0
2025-11-09T16:46:16.433802,516,-0.33,0.84,197.41,3048.32,0.0,0.005,0.015,1.043,69683.36,28.95,0,0,0.0,0.0,0.0,0.0,0.97,-22.0
2025-11-09T16:46:16.536047,517,-0.33,0.84,197.39,3048.32,0.0,0.004,0.016,1.041,69683.36,28.94,0,0,0.0,0.0,0.0,0.0,0.97,-23.0
2025-11-09T16:46:16.634533,518,-0.33,0.85,197.4,3048.32,0.0,0.005,0.016,1.042,69683.36,28.95,0,0,0.0,0.0,0.0,0.0,0.97,-24.0
2025-11-09T16:46:16.736794,519,-0.33,0.84,197.39,3048.32,0.0,0.006,0.014,1.041,69683.36,29.0,0,0,0.0,0.0,0.0,0.0,0.97,-23.0
2025-11-09T16:46:16.835032,520,-0.33,0.84,197.4,3048.32,0.0,0.003,0.015,1.043,69683.36,28.96,0,0,0.0,0.0,0.0,0.0,0.97,-23.0
2025-11-09T16:46:16.933548,521,-0.33,0.84,197.42,3048.32,0.0,0.006,0.015,1.042,69683.36,28.97,0,0,0.0,0.0,0.0,0.0,0.97,-22.0
2025-11-09T16:46:17.035799,522,-0.33,0.85,197.43,3048.32,0.0,0.004,0.017,1.041,69683.36,28.92,0,0,0.0,0.0,0.0,0.0,0.97,-23.0
2025-11-09T16:46:17.134509,523,-0.33,0.84,197.42,3048.32,0.0,0.006,0.015,1.042,69683.36,28.99,0,0,0.0,0.0,0.0,0.0,0.97,-22.0
2025-11-09T16:46:17.236577,524,-0.33,0.84,197.42,3048.32,0.0,0.005,0.015,1.042,69683.36,28.93,0,0,0.0,0.0,0.0,0.0,0.97,-22.0
2025-11-09T16:46:17.335093,525,-0.33,0.84,197.42,3048.32,0.0,0.005,0.016,1.041,69683.36,28.98,0,0,0.0,0.0,0.0,0.0,0.97,-22.0
2025-11-09T16:46:17.437114,526,-0.33,0.85,197.42,3048.32,0.0,0.006,0.015,1.042,69683.36,28.97,0,0,0.0,0.0,0.0,0.0,0.97,-23.0
2025-11-09T16:46:17.535630,527,-0.33,0.84,197.42,3048.32,0.0,0.004,0.015,1.044,69683.36,28.98,0,0,0.0,0.0,0.0,0.0,0.97,-23.0
2025-11-09T16:46:17.634255,528,-0.33,0.84,197.4,3048.32,0.0,0.005,0.014,1.04,69683.36,28.94,0,0,0.0,0.0,0.0,0.0,0.97,-22.0
2025-11-09T16:46:17.736257,529,-0.33,0.84,197.41,3048.32,0.0,0.006,0.016,1.041,69683.36,28.92,0,0,0.0,0.0,0.0,0.0,0.97,-22.0
2025-11-09T16:46:17.834882,530,-0.33,0.84,197.41,3048.32,0.0,0.005,0.015,1.04,69683.36,28.93,0,0,0.0,0.0,0.0,0.0,0.97,-23.0
2025-11-09T16:46:17.936782,531,-0.33,0.84,197.41,3048.32,0.0,0.005,0.017,1.042,69683.36,28.95,0,0,0.0,0.0,0.0,0.0,0.97,-22.0
2025-11-09T16:46:18.035413,532,-0.33,0.84,197.41,3048.32,0.0,0.006,0.015,1.043,69683.36,28.98,0,0,0.0,0.0,0.0,0.0,0.97,-22.0
2025-11-09T16:46:18.133968,533,-0.33,0.84,197.41,3048.32,0.0,0.006,0.015,1.041,69683.36,28.93,0,0,0.0,0.0,0.0,0.0,0.97,-22.0
2025-11-09T16:46:18.235996,534,-0.33,0.84,197.43,3048.32,0.0,0.005,0.015,1.044,69683.36,29.0,0,0,0.0,0.0,0.0,0.0,0.97,-23.0
2025-11-09T16:46:18.334598,535,-0.33,0.84,197.45,3048.32,0.0,0.005,0.014,1.041,69683.36,28.95,0,0,0.0,0.0,0.0,0.0,0.97,-22.0
2025-11-09T16:46:18.436546,536,-0.33,0.84,197.44,3048.32,0.0,0.004,0.016,1.043,69683.36,28.98,0,0,0.0,0.0,0.0,0.0,0.97,-22.0
2025-11-09T16:46:18.534985,537,-0.33,0.84,197.44,3048.32,0.0,0.008,0.015,1.043,69683.36,28.95,0,0,0.0,0.0,0.0,0.0,0.97,-22.0
2025-11-09T16:46:18.637160,538,-0.33,0.84,197.45,3048.32,0.0,0.005,0.015,1.042,69683.36,28.95,0,0,0.0,0.0,0.0,0.0,0.97,-22.0
2025-11-09T16:46:18.735760,539,-0.33,0.84,197.45,3048.32,0.0,0.006,0.014,1.043,69683.36,28.92,0,0,0.0,0.0,0.0,0.0,0.97,-22.0
2025-11-09T16:46:18.834296,540,-0.33,0.84,197.45,3048.32,0.0,0.006,0.015,1.042,69683.36,28.99,0,0,0.0,0.0,0.0,0.0,0.97,-23.0
2025-11-09T16:46:18.936242,541,-0.33,0.84,197.47,3048.32,0.0,0.007,0.016,1.041,69683.36,28.99,0,0,0.0,0.0,0.0,0.0,0.97,-23.0
2025-11-09T16:46:19.034808,542,-0.33,0.84,197.47,3048.32,0.0,0.004,0.015,1.043,69683.36,28.95,0,0,0.0,0.0,0.0,0.0,0.97,-23.0
2025-11-09T16:46:19.136847,543,-0.33,0.84,197.48,3048.32,0.0,0.006,0.015,1.04,69683.36,28.95,0,0,0.0,0.0,0.0,0.0,0.97,-22.0
2025-11-09T16:46:19.235668,544,-0.33,0.84,197.49,3048.32,0.0,0.006,0.015,1.041,69683.36,28.94,0,0,0.0,0.0,0.0,0.0,0.97,-23.0
2025-11-09T16:46:19.333838,545,-0.33,0.84,197.5,3048.32,0.0,0.005,0.017,1.043,69683.36,28.94,0,0,0.0,0.0,0.0,0.0,0.97,-24.0
2025-11-09T16:46:19.435915,546,-0.33,0.84,197.51,3048.32,0.0,0.006,0.016,1.042,69683.36,28.93,0,0,0.0,0.0,0.0,0.0,0.97,-24.0
2025-11-09T16:46:19.534653,547,-0.33,0.84,197.52,3048.32,0.0,0.006,0.016,1.043,69683.36,28.95,0,0,0.0,0.0,0.0,0.0,0.97,-22.0
2025-11-09T16:46:19.636740,548,-0.33,0.84,197.54,3048.32,0.0,0.003,0.014,1.041,69683.36,28.98,0,0,0.0,0.0,0.0,0.0,0.97,-22.0
2025-11-09T16:46:19.735146,549,-0.33,0.84,197.56,3048.32,0.0,0.004,0.017,1.041,69683.36,28.98,0,0,0.0,0.0,0.0,0.0,0.97,-23.0
2025-11-09T16:46:19.837264,550,-0.33,0.85,197.57,3048.32,0.0,0.007,0.015,1.042,69683.36,28.94,0,0,0.0,0.0,0.0,0.0,0.97,-22.0
2025-11-09T16:46:19.935831,551,-0.33,0.84,197.56,3048.32,0.0,0.006,0.015,1.041,69683.36,28.97,0,0,0.0,0.0,0.0,0.0,0.97,-23.0
2025-11-09T16:46:20.034447,552,-0.33,0.84,197.55,3048.32,0.0,0.004,0.016,1.041,69683.36,28.95,0,0,0.0,0.0,0.0,0.0,0.97,-23.0
2025-11-09T16:46:20.136472,553,-0.33,0.84,197.53,3048.32,0.0,0.005,0.015,1.042,69683.36,28.96,0,0,0.0,0.0,0.0,0.0,0.97,-23.0
2025-11-09T16:46:20.234897,554,-0.33,0.84,197.52,3048.32,0.0,0.005,0.015,1.041,69683.36,29.0,0,0,0.0,0.0,0.0,0.0,0.97,-22.0
2025-11-09T16:46:20.336821,555,-0.33,0.84,197.49,3048.32,0.0,0.005,0.015,1.042,69683.36,28.94,0,0,0.0,0.0,0.0,0.0,0.97,-23.0
2025-11-09T16:46:20.435477,556,-0.33,0.84,197.47,3048.32,0.0,0.005,0.014,1.04,69683.36,28.92,0,0,0.0,0.0,0.0,0.0,0.97,-22.0
2025-11-09T16:46:20.537411,557,-0.33,0.84,197.45,3048.32,0.0,0.005,0.015,1.042,69683.36,28.95,0,0,0.0,0.0,0.0,0.0,0.97,-22.0
2025-11-09T16:46:20.635972,558,-0.33,0.84,197.45,3048.32,0.0,0.005,0.014,1.042,69683.36,28.98,0,0,0.0,0.0,0.0,0.0,0.97,-23.0
2025-11-09T16:46:20.734832,559,-0.33,0.84,197.46,3048.32,0.0,0.006,0.016,1.042,69683.36,28.98,0,0,0.0,0.0,0.0,0.0,0.97,-23.0
2025-11-09T16:46:20.836617,560,-0.33,0.84,197.45,3048.32,0.0,0.005,0.016,1.041,69683.36,28.95,0,0,0.0,0.0,0.0,0.0,0.97,-23.0
2025-11-09T16:46:20.935014,561,-0.33,0.84,197.44,3048.32,0.0,0.005,0.015,1.043,69683.36,28.93,0,0,0.0,0.0,0.0,0.0,0.97,-23.0
2025-11-09T16:46:21.037264,562,-0.33,0.84,197.43,3048.32,0.0,0.006,0.014,1.043,69683.36,28.95,0,0,0.0,0.0,0.0,0.0,0.97,-23.0
2025-11-09T16:46:21.135775,563,-0.33,0.84,197.42,3048.32,0.0,0.007,0.015,1.04,69683.36,28.89,0,0,0.0,0.0,0.0,0.0,0.97,-22.0
2025-11-09T16:46:21.234546,564,-0.33,0.84,197.44,3048.32,0.0,0.006,0.014,1.042,69683.36,28.93,0,0,0.0,0.0,0.0,0.0,0.97,-22.0
2025-11-09T16:46:21.336602,565,-0.33,0.84,197.45,3048.32,0.0,0.006,0.016,1.043,69683.36,28.94,0,0,0.0,0.0,0.0,0.0,0.97,-23.0
2025-11-09T16:46:21.435056,566,-0.33,0.84,197.41,3048.32,0.0,0.005,0.015,1.042,69683.36,28.94,0,0,0.0,0.0,0.0,0.0,0.97,-22.0
2025-11-09T16:46:21.537193,567,-0.33,0.84,197.4,3048.32,0.0,0.006,0.014,1.042,69683.36,29.0,0,0,0.0,0.0,0.0,0.0,0.97,-22.0
2025-11-09T16:46:21.635681,568,-0.33,0.84,197.42,3048.32,0.0,0.005,0.014,1.042,69683.36,28.96,0,0,0.0,0.0,0.0,0.0,0.97,-23.0
2025-11-09T16:46:21.737602,569,-0.33,0.84,197.43,3048.32,0.0,0.004,0.013,1.043,69683.36,28.96,0,0,0.0,0.0,0.0,0.0,0.97,-23.0
2025-11-09T16:46:21.836483,570,-0.33,0.84,197.43,3048.32,0.0,0.004,0.016,1.041,69683.36,28.91,0,0,0.0,0.0,0.0,0.0,0.97,-23.0
2025-11-09T16:46:21.935000,571,-0.33,0.84,197.43,3048.32,0.0,0.005,0.016,1.041,69683.36,28.91,0,0,0.0,0.0,0.0,0.0,0.97,-23.0
2025-11-09T16:46:22.036617,572,-0.33,0.84,197.43,3048.32,0.0,0.004,0.016,1.041,69683.36,28.9,0,0,0.0,0.0,0.0,0.0,0.97,-22.0
2025-11-09T16:46:22.135411,573,-0.33,0.84,197.44,3048.32,0.0,0.005,0.016,1.042,69683.36,28.96,0,0,0.0,0.0,0.0,0.0,0.97,-22.0
2025-11-09T16:46:22.237509,574,-0.33,0.84,197.43,3048.32,0.0,0.005,0.016,1.039,69683.36,28.95,0,0,0.0,0.0,0.0,0.0,0.97,-23.0
2025-11-09T16:46:22.336324,575,-0.33,0.84,197.43,3048.32,0.0,0.006,0.015,1.042,69683.36,28.96,0,0,0.0,0.0,0.0,0.0,0.97,-23.0
2025-11-09T16:46:22.437923,576,-0.33,0.84,197.43,3048.32,0.0,0.005,0.015,1.042,69683.36,28.96,0,0,0.0,0.0,0.0,0.0,0.97,-23.0
2025-11-09T16:46:22.536407,577,-0.33,0.84,197.43,3048.32,0.0,0.006,0.016,1.041,69683.36,28.91,0,0,0.0,0.0,0.0,0.0,0.97,-23.0
2025-11-09T16:46:22.634982,578,-0.33,0.84,197.43,3048.32,0.0,0.005,0.014,1.041,69683.36,28.93,0,0,0.0,0.0,0.0,0.0,0.97,-22.0
2025-11-09T16:46:22.737097,579,-0.33,0.84,197.41,3048.32,0.0,0.007,0.014,1.042,69683.36,28.93,0,0,0.0,0.0,0.0,0.0,0.97,-22.0
2025-11-09T16:46:22.835565,580,-0.33,0.84,197.4,3048.32,0.0,0.005,0.017,1.042,69683.36,28.94,0,0,0.0,0.0,0.0,0.0,0.97,-23.0
2025-11-09T16:46:22.937677,581,-0.33,0.84,197.35,3048.32,0.0,0.006,0.015,1.041,69683.36,28.95,0,0,0.0,0.0,0.0,0.0,0.97,-22.0
2025-11-09T16:46:23.036350,582,-0.33,0.84,197.36,3048.32,0.0,0.007,0.014,1.044,69683.36,28.94,0,0,0.0,0.0,0.0,0.0,0.97,-22.0
2025-11-09T16:46:23.134692,583,-0.33,0.84,197.36,3048.32,0.0,0.007,0.017,1.041,69683.36,28.93,0,0,0.0,0.0,0.0,0.0,0.97,-22.0
2025-11-09T16:46:23.236891,584,-0.33,0.84,197.37,3048.32,0.0,0.005,0.015,1.042,69683.36,28.89,0,0,0.0,0.0,0.0,0.0,0.97,-22.0
2025-11-09T16:46:23.335210,585,-0.33,0.84,197.37,3048.32,0.0,0.006,0.015,1.042,69683.36,28.97,0,0,0.0,0.0,0.0,0.0,0.97,-24.0
2025-11-09T16:46:23.437466,586,-0.33,0.84,197.36,3048.32,0.0,0.004,0.015,1.046,69683.36,28.94,0,0,0.0,0.0,0.0,0.0,0.97,-23.0
2025-11-09T16:46:23.535975,587,-0.33,0.84,197.34,3048.32,0.0,0.006,0.015,1.033,69683.36,28.95,0,0,0.0,0.0,0.0,0.0,0.97,-22.0
2025-11-09T16:46:23.638163,588,-0.33,0.84,197.33,3048.32,0.0,0.003,0.014,1.043,69683.36,28.97,0,0,0.0,0.0,0.0,0.0,0.97,-23.0
2025-11-09T16:46:23.736752,589,-0.33,0.84,197.33,3048.32,0.0,0.006,0.016,1.042,69683.36,28.91,0,0,0.0,0.0,0.0,0.0,0.97,-22.0
2025-11-09T16:46:23.835041,590,-0.33,0.84,197.33,3048.32,0.0,0.005,0.015,1.043,69683.36,28.96,0,0,0.0,0.0,0.0,0.0,0.97,-22.0
2025-11-09T16:46:23.937220,591,-0.33,0.84,197.33,3048.32,0.0,0.005,0.016,1.038,69683.36,28.91,0,0,0.0,0.0,0.0,0.0,0.97,-22.0
2025-11-09T16:46:24.035600,592,-0.33,0.84,197.34,3048.32,0.0,0.004,0.015,1.046,69683.36,28.95,0,0,0.0,0.0,0.0,0.0,0.97,-22.0
2025-11-09T16:46:24.137846,593,-0.33,0.84,197.33,3048.32,0.0,0.004,0.016,1.041,69683.36,28.91,0,0,0.0,0.0,0.0,0.0,0.97,-21.0
2025-11-09T16:46:24.236179,594,-0.33,0.84,197.34,3048.32,0.0,0.005,0.016,1.041,69683.36,28.96,0,0,0.0,0.0,0.0,0.0,0.97,-22.0
2025-11-09T16:46:24.338390,595,-0.33,0.84,197.34,3048.32,0.0,0.007,0.016,1.042,69683.36,28.96,0,0,0.0,0.0,0.0,0.0,0.97,-22.0
2025-11-09T16:46:24.436915,596,-0.33,0.84,197.33,3048.32,0.0,0.006,0.015,1.039,69683.36,28.93,0,0,0.0,0.0,0.0,0.0,0.97,-23.0
2025-11-09T16:46:24.535321,597,-0.33,0.84,197.32,3048.32,0.0,0.005,0.014,1.042,69683.36,28.96,0,0,0.0,0.0,0.0,0.0,0.97,-23.0
2025-11-09T16:46:24.637437,598,-0.33,0.84,197.34,3048.32,0.0,0.004,0.016,1.043,69683.36,28.93,0,0,0.0,0.0,0.0,0.0,0.97,-22.0
2025-11-09T16:46:24.735899,599,-0.33,0.84,197.34,3048.32,0.0,0.004,0.015,1.043,69683.36,28.96,0,0,0.0,0.0,0.0,0.0,0.97,-23.0
2025-11-09T16:46:24.838156,600,-0.33,0.84,197.35,3048.32,0.0,0.005,0.017,1.042,69683.36,28.97,0,0,0.0,0.0,0.0,0.0,0.97,-22.0
2025-11-09T16:46:24.936721,601,-0.33,0.84,197.36,3048.32,0.0,0.006,0.015,1.041,69683.36,28.92,0,0,0.0,0.0,0.0,0.0,0.97,-22.0
2025-11-09T16:46:25.034989,602,-0.33,0.84,197.37,3048.32,0.0,0.006,0.016,1.042,69683.36,28.93,0,0,0.0,0.0,0.0,0.0,0.97,-22.0
2025-11-09T16:46:25.137344,603,-0.33,0.84,197.39,3048.32,0.0,0.006,0.016,1.033,69683.36,28.97,0,0,0.0,0.0,0.0,0.0,0.97,-23.0
2025-11-09T16:46:25.235759,604,-0.33,0.84,197.4,3048.32,0.0,0.004,0.015,1.047,69683.36,28.94,0,0,0.0,0.0,0.0,0.0,0.97,-22.0
2025-11-09T16:46:25.337756,605,-0.33,0.84,197.4,3048.32,0.0,0.005,0.016,1.04,69683.36,28.94,0,0,0.0,0.0,0.0,0.0,0.97,-23.0
2025-11-09T16:46:25.436197,606,-0.33,0.84,197.39,3048.32,0.0,0.005,0.015,1.042,69683.36,28.94,0,0,0.0,0.0,0.0,0.0,0.97,-23.0
2025-11-09T16:46:25.538363,607,-0.33,0.84,197.39,3048.32,0.0,0.005,0.016,1.042,69683.36,28.96,0,0,0.0,0.0,0.0,0.0,0.97,-22.0
2025-11-09T16:46:25.636929,608,-0.33,0.84,197.39,3048.32,0.0,0.006,0.016,1.043,69683.36,28.96,0,0,0.0,0.0,0.0,0.0,0.97,-23.0
2025-11-09T16:46:25.735308,609,-0.33,0.84,197.41,3048.32,0.0,0.005,0.016,1.043,69683.36,28.91,0,0,0.0,0.0,0.0,0.0,0.97,-23.0
2025-11-09T16:46:25.837465,610,-0.33,0.84,197.42,3048.32,0.0,0.006,0.016,1.042,69683.36,28.93,0,0,0.0,0.0,0.0,0.0,0.97,-23.0
2025-11-09T16:46:25.935922,611,-0.33,0.84,197.41,3048.32,0.0,0.005,0.016,1.043,69683.36,28.93,0,0,0.0,0.0,0.0,0.0,0.97,-22.0
2025-11-09T16:46:26.038097,612,-0.33,0.84,197.4,3048.32,0.0,0.006,0.015,1.042,69683.36,28.95,0,0,0.0,0.0,0.0,0.0,0.97,-23.0
2025-11-09T16:46:26.136597,613,-0.33,0.84,197.4,3048.32,0.0,0.005,0.015,1.042,69683.36,28.97,0,0,0.0,0.0,0.0,0.0,0.97,-22.0
2025-11-09T16:46:26.235078,614,-0.33,0.84,197.41,3048.32,0.0,0.007,0.016,1.038,69683.36,28.97,0,0,0.0,0.0,0.0,0.0,0.97,-23.0
2025-11-09T16:46:26.337243,615,-0.33,0.84,197.42,3048.32,0.0,0.006,0.016,1.041,69683.36,28.95,0,0,0.0,0.0,0.0,0.0,0.97,-22.0
2025-11-09T16:46:26.435676,616,-0.33,0.84,197.43,3048.32,0.0,0.005,0.014,1.042,69683.36,28.93,0,0,0.0,0.0,0.0,0.0,0.97,-23.0
2025-11-09T16:46:26.537847,617,-0.33,0.84,197.44,3048.32,0.0,0.006,0.014,1.041,69683.36,28.94,0,0,0.0,0.0,0.0,0.0,0.97,-23.0
2025-11-09T16:46:26.636349,618,-0.33,0.84,197.45,3048.32,0.0,0.006,0.015,1.043,69683.36,28.96,0,0,0.0,0.0,0.0,0.0,0.97,-23.0
2025-11-09T16:46:26.738480,619,-0.33,0.84,197.44,3048.32,0.0,0.006,0.017,1.041,69683.36,28.92,0,0,0.0,0.0,0.0,0.0,0.97,-22.0
2025-11-09T16:46:26.836929,620,-0.33,0.84,197.45,3048.32,0.0,0.006,0.017,1.043,69683.36,28.97,0,0,0.0,0.0,0.0,0.0,0.97,-22.0
2025-11-09T16:46:26.935395,621,-0.33,0.84,197.44,3048.32,0.0,0.006,0.014,1.042,69683.36,28.96,0,0,0.0,0.0,0.0,0.0,0.97,-23.0
2025-11-09T16:46:27.037573,622,-0.33,0.84,197.45,3048.32,0.0,0.005,0.014,1.042,69683.36,28.92,0,0,0.0,0.0,0.0,0.0,0.97,-23.0
2025-11-09T16:46:27.136031,623,-0.33,0.84,197.45,3048.32,0.0,0.004,0.017,1.041,69683.36,28.96,0,0,0.0,0.0,0.0,0.0,0.97,-23.0
2025-11-09T16:46:27.238280,624,-0.33,0.84,197.45,3048.32,0.0,0.006,0.015,1.042,69683.36,28.96,0,0,0.0,0.0,0.0,0.0,0.97,-22.0
2025-11-09T16:46:27.336635,625,-0.33,0.84,197.45,3048.32,0.0,0.007,0.014,1.043,69683.36,28.98,0,0,0.0,0.0,0.0,0.0,0.97,-22.0
2025-11-09T16:46:27.438868,626,-0.33,0.84,197.46,3048.32,0.0,0.003,0.017,1.04,69683.36,28.93,0,0,0.0,0.0,0.0,0.0,0.97,-22.0
2025-11-09T16:46:27.537341,627,-0.33,0.84,197.48,3048.32,0.0,0.004,0.017,1.045,69683.36,28.97,0,0,0.0,0.0,0.0,0.0,0.97,-23.0
2025-11-09T16:46:27.635799,628,-0.33,0.84,197.48,3048.32,0.0,0.006,0.015,1.042,69683.36,28.96,0,0,0.0,0.0,0.0,0.0,0.97,-23.0
2025-11-09T16:46:27.737904,629,-0.33,0.84,197.47,3048.32,0.0,0.006,0.017,1.041,69683.36,28.94,0,0,0.0,0.0,0.0,0.0,0.97,-23.0
2025-11-09T16:46:27.836487,630,-0.33,0.84,197.47,3048.32,0.0,0.006,0.015,1.042,69683.36,28.95,0,0,0.0,0.0,0.0,0.0,0.97,-23.0
2025-11-09T16:46:27.938668,631,-0.33,0.84,197.47,3048.32,0.0,0.005,0.017,1.042,69683.36,28.94,0,0,0.0,0.0,0.0,0.0,0.97,-22.0
2025-11-09T16:46:28.037259,632,-0.33,0.84,197.46,3048.32,0.0,0.006,0.015,1.045,69683.36,28.94,0,0,0.0,0.0,0.0,0.0,0.97,-22.0
2025-11-09T16:46:28.136122,633,-0.33,0.84,197.46,3048.32,0.0,0.006,0.017,1.041,69683.36,28.95,0,0,0.0,0.0,0.0,0.0,0.97,-22.0
2025-11-09T16:46:28.237991,634,-0.33,0.84,197.43,3048.32,0.0,0.005,0.014,1.043,69683.36,28.96,0,0,0.0,0.0,0.0,0.0,0.97,-22.0
2025-11-09T16:46:28.336165,635,-0.33,0.84,197.42,3048.32,0.0,0.005,0.014,1.045,69683.36,28.92,0,0,0.0,0.0,0.0,0.0,0.97,-23.0
2025-11-09T16:46:28.438423,636,-0.33,0.84,197.43,3048.32,0.0,0.005,0.016,1.041,69683.36,28.93,0,0,0.0,0.0,0.0,0.0,0.97,-22.0
2025-11-09T16:46:28.537017,637,-0.33,0.84,197.42,3048.32,0.0,0.003,0.015,1.043,69683.36,28.92,0,0,0.0,0.0,0.0,0.0,0.97,-22.0
2025-11-09T16:46:28.638916,638,-0.33,0.84,197.42,3048.32,0.0,0.004,0.017,1.038,69683.36,28.96,0,0,0.0,0.0,0.0,0.0,0.97,-23.0
2025-11-09T16:46:28.737665,639,-0.33,0.84,197.43,3048.32,0.0,0.004,0.016,1.043,69683.36,28.94,0,0,0.0,0.0,0.0,0.0,0.97,-22.0
2025-11-09T16:46:28.836443,640,-0.33,0.84,197.42,3048.32,0.0,0.006,0.015,1.042,69683.36,28.96,0,0,0.0,0.0,0.0,0.0,0.97,-23.0
2025-11-09T16:46:28.938329,641,-0.33,0.84,197.43,3048.32,0.0,0.005,0.013,1.044,69683.36,28.99,0,0,0.0,0.0,0.0,0.0,0.97,-22.0
2025-11-09T16:46:29.037016,642,-0.33,0.84,197.41,3048.32,0.0,0.006,0.016,1.043,69683.36,28.96,0,0,0.0,0.0,0.0,0.0,0.97,-22.0
2025-11-09T16:46:29.138920,643,-0.33,0.84,197.4,3048.32,0.0,0.006,0.015,1.04,69683.36,28.91,0,0,0.0,0.0,0.0,0.0,0.97,-22.0
2025-11-09T16:46:29.237468,644,-0.33,0.84,197.38,3048.32,0.0,0.005,0.016,1.038,69683.36,28.92,0,0,0.0,0.0,0.0,0.0,0.97,-22.0
2025-11-09T16:46:29.339410,645,-0.32,0.84,197.36,3048.32,0.0,0.004,0.016,1.04,69683.36,28.92,0,0,0.0,0.0,0.0,0.0,0.97,-22.0
2025-11-09T16:46:29.438057,646,-0.32,0.84,197.35,3048.32,0.0,0.005,0.015,1.04,69683.36,28.95,0,0,0.0,0.0,0.0,0.0,0.97,-22.0
2025-11-09T16:46:29.536712,647,-0.33,0.84,197.35,3048.32,0.0,0.006,0.017,1.041,69683.36,28.91,0,0,0.0,0.0,0.0,0.0,0.97,-23.0
2025-11-09T16:46:29.638651,648,-0.33,0.84,197.35,3048.32,0.0,0.006,0.016,1.042,69683.36,28.92,0,0,0.0,0.0,0.0,0.0,0.97,-22.0
2025-11-09T16:46:29.737323,649,-0.33,0.84,197.35,3048.32,0.0,0.006,0.018,1.042,69683.36,28.95,0,0,0.0,0.0,0.0,0.0,0.97,-23.0
2025-11-09T16:46:29.839193,650,-0.33,0.84,197.36,3048.32,0.0,0.006,0.017,1.041,69683.36,28.95,0,0,0.0,0.0,0.0,0.0,0.97,-22.0
2025-11-09T16:46:29.937840,651,-0.33,0.84,197.36,3048.32,0.0,0.004,0.015,1.043,69683.36,28.98,0,0,0.0,0.0,0.0,0.0,0.97,-22.0
2025-11-09T16:46:30.036507,652,-0.33,0.84,197.37,3048.32,0.0,0.005,0.014,1.042,69683.36,28.96,0,0,0.0,0.0,0.0,0.0,0.97,-23.0
2025-11-09T16:46:30.138383,653,-0.33,0.84,197.37,3048.32,0.0,0.005,0.015,1.042,69683.36,28.91,0,0,0.0,0.0,0.0,0.0,0.97,-24.0
2025-11-09T16:46:30.236967,654,-0.33,0.84,197.4,3048.32,0.0,0.005,0.015,1.041,69683.36,28.95,0,0,0.0,0.0,0.0,0.0,0.97,-23.0
2025-11-09T16:46:30.338965,655,-0.33,0.84,197.42,3048.32,0.0,0.005,0.015,1.042,69683.36,28.93,0,0,0.0,0.0,0.0,0.0,0.97,-22.0
2025-11-09T16:46:30.437603,656,-0.33,0.84,197.43,3048.32,0.0,0.007,0.016,1.043,69683.36,28.92,0,0,0.0,0.0,0.0,0.0,0.97,-22.0
2025-11-09T16:46:30.539608,657,-0.33,0.84,197.43,3048.32,0.0,0.005,0.015,1.041,69683.36,28.99,0,0,0.0,0.0,0.0,0.0,0.97,-22.0
2025-11-09T16:46:30.637840,658,-0.33,0.84,197.44,3048.32,0.0,0.005,0.014,1.043,69683.36,28.97,0,0,0.0,0.0,0.0,0.0,0.97,-23.0
2025-11-09T16:46:30.736568,659,-0.33,0.84,197.45,3048.32,0.0,0.007,0.014,1.043,69683.36,28.99,0,0,0.0,0.0,0.0,0.0,0.97,-22.0
2025-11-09T16:46:30.838585,660,-0.33,0.84,197.46,3048.32,0.0,0.005,0.014,1.041,69683.36,28.92,0,0,0.0,0.0,0.0,0.0,0.97,-22.0
2025-11-09T16:46:30.937423,661,-0.33,0.84,197.46,3048.32,0.0,0.005,0.015,1.044,69683.36,28.95,0,0,0.0,0.0,0.0,0.0,0.97,-22.0
2025-11-09T16:46:31.039201,662,-0.33,0.84,197.45,3048.32,0.0,0.005,0.016,1.042,69683.36,28.92,0,0,0.0,0.0,0.0,0.0,0.97,-22.0
2025-11-09T16:46:31.137903,663,-0.33,0.84,197.46,3048.32,0.0,0.006,0.016,1.041,69683.36,28.95,0,0,0.0,0.0,0.0,0.0,0.97,-22.0
2025-11-09T16:46:31.239849,664,-0.33,0.84,197.44,3048.32,0.0,0.005,0.016,1.041,69683.36,28.96,0,0,0.0,0.0,0.0,0.0,0.97,-22.0
2025-11-09T16:46:31.338457,665,-0.33,0.84,197.43,3048.32,0.0,0.005,0.017,1.042,69683.36,28.95,0,0,0.0,0.0,0.0,0.0,0.97,-23.0
2025-11-09T16:46:31.436986,666,-0.33,0.84,197.43,3048.32,0.0,0.006,0.015,1.043,69683.36,28.98,0,0,0.0,0.0,0.0,0.0,0.97,-22.0
2025-11-09T16:46:31.539172,667,-0.33,0.85,197.42,3048.32,0.0,0.005,0.018,1.042,69683.36,28.94,0,0,0.0,0.0,0.0,0.0,0.97,-23.0
2025-11-09T16:46:31.637383,668,-0.32,0.84,197.42,3048.32,0.0,0.005,0.014,1.041,69683.36,28.97,0,0,0.0,0.0,0.0,0.0,0.97,-23.0
2025-11-09T16:46:31.739548,669,-0.32,0.85,197.44,3048.32,0.0,0.006,0.015,1.043,69683.36,28.97,0,0,0.0,0.0,0.0,0.0,0.97,-23.0
2025-11-09T16:46:31.837976,670,-0.32,0.85,197.45,3048.32,0.0,0.005,0.016,1.042,69683.36,28.89,0,0,0.0,0.0,0.0,0.0,0.97,-23.0
2025-11-09T16:46:31.936457,671,-0.32,0.85,197.46,3048.32,0.0,0.006,0.016,1.041,69683.36,28.93,0,0,0.0,0.0,0.0,0.0,0.97,-22.0
2025-11-09T16:46:32.038578,672,-0.32,0.85,197.48,3048.32,0.0,0.005,0.016,1.042,69683.36,28.96,0,0,0.0,0.0,0.0,0.0,0.97,-23.0
2025-11-09T16:46:32.137115,673,-0.33,0.85,197.5,3048.32,0.0,0.007,0.017,1.046,69683.36,28.93,0,0,0.0,0.0,0.0,0.0,0.97,-23.0
2025-11-09T16:46:32.239418,674,-0.33,0.85,197.51,3048.32,0.0,0.005,0.014,1.042,69683.36,28.93,0,0,0.0,0.0,0.0,0.0,0.97,-22.0
2025-11-09T16:46:32.338070,675,-0.33,0.85,197.51,3048.32,0.0,0.006,0.015,1.029,69683.36,28.94,0,0,0.0,0.0,0.0,0.0,0.97,-22.0
2025-11-09T16:46:32.439972,676,-0.33,0.85,197.51,3048.32,0.0,0.005,0.017,1.048,69683.36,28.92,0,0,0.0,0.0,0.0,0.0,0.97,-22.0
2025-11-09T16:46:32.538636,677,-0.33,0.85,197.5,3048.32,0.0,0.006,0.016,1.044,69683.36,28.92,0,0,0.0,0.0,0.0,0.0,0.97,-22.0
2025-11-09T16:46:32.636866,678,-0.33,0.85,197.5,3048.32,0.0,0.005,0.016,1.042,69683.36,28.93,0,0,0.0,0.0,0.0,0.0,0.97,-22.0
2025-11-09T16:46:32.739281,679,-0.32,0.85,197.49,3048.32,0.0,0.006,0.016,1.043,69683.36,28.97,0,0,0.0,0.0,0.0,0.0,0.97,-22.0
2025-11-09T16:46:32.837856,680,-0.32,0.85,197.48,3048.32,0.0,0.005,0.015,1.044,69683.36,28.95,0,0,0.0,0.0,0.0,0.0,0.97,-23.0
2025-11-09T16:46:32.939752,681,-0.32,0.85,197.47,3048.32,0.0,0.006,0.016,1.044,69683.36,28.91,0,0,0.0,0.0,0.0,0.0,0.97,-23.0
2025-11-09T16:46:33.038417,682,-0.32,0.85,197.46,3048.32,0.0,0.007,0.016,1.042,69683.36,28.93,0,0,0.0,0.0,0.0,0.0,0.97,-22.0
2025-11-09T16:46:33.140307,683,-0.32,0.84,197.46,3048.32,0.0,0.005,0.015,1.04,69683.36,28.95,0,0,0.0,0.0,0.0,0.0,0.97,-23.0
2025-11-09T16:46:33.238951,684,-0.32,0.84,197.48,3048.32,0.0,0.005,0.016,1.043,69683.36,28.97,0,0,0.0,0.0,0.0,0.0,0.97,-23.0
2025-11-09T16:46:33.337695,685,-0.32,0.84,197.47,3048.32,0.0,0.005,0.015,1.042,69683.36,28.92,0,0,0.0,0.0,0.0,0.0,0.97,-22.0
2025-11-09T16:46:33.439590,686,-0.32,0.84,197.46,3048.32,0.0,0.004,0.015,1.042,69683.36,28.94,0,0,0.0,0.0,0.0,0.0,0.97,-23.0
2025-11-09T16:46:33.538217,687,-0.32,0.84,197.48,3048.32,0.0,0.006,0.018,1.043,69683.36,28.93,0,0,0.0,0.0,0.0,0.0,0.97,-23.0
2025-11-09T16:46:33.639964,688,-0.32,0.84,197.48,3048.32,0.0,0.005,0.014,1.041,69683.36,28.94,0,0,0.0,0.0,0.0,0.0,0.97,-22.0
2025-11-09T16:46:33.738360,689,-0.32,0.84,197.49,3048.32,0.0,0.005,0.014,1.042,69683.36,28.91,0,0,0.0,0.0,0.0,0.0,0.97,-23.0
2025-11-09T16:46:33.836825,690,-0.32,0.84,197.5,3048.32,0.0,0.007,0.014,1.043,69683.36,28.95,0,0,0.0,0.0,0.0,0.0,0.97,-23.0
2025-11-09T16:46:33.939026,691,-0.32,0.84,197.49,3048.32,0.0,0.005,0.015,1.043,69683.36,28.94,0,0,0.0,0.0,0.0,0.0,0.97,-23.0
2025-11-09T16:46:34.037476,692,-0.32,0.84,197.49,3048.32,0.0,0.005,0.015,1.041,69683.36,28.95,0,0,0.0,0.0,0.0,0.0,0.97,-23.0
2025-11-09T16:46:34.139675,693,-0.32,0.84,197.49,3048.32,0.0,0.005,0.016,1.043,69683.36,28.97,0,0,0.0,0.0,0.0,0.0,0.97,-23.0
2025-11-09T16:46:34.238090,694,-0.32,0.84,197.48,3048.32,0.0,0.005,0.016,1.041,69683.36,28.96,0,0,0.0,0.0,0.0,0.0,0.97,-23.0
2025-11-09T16:46:34.340285,695,-0.32,0.84,197.46,3048.32,0.0,0.006,0.015,1.041,69683.36,28.93,0,0,0.0,0.0,0.0,0.0,0.97,-22.0
2025-11-09T16:46:34.438740,696,-0.32,0.84,197.45,3048.32,0.0,0.004,0.015,1.046,69683.36,28.95,0,0,0.0,0.0,0.0,0.0,0.97,-23.0
2025-11-09T16:46:34.537207,697,-0.32,0.84,197.44,3048.32,0.0,0.006,0.014,1.043,69683.36,28.92,0,0,0.0,0.0,0.0,0.0,0.97,-23.0
2025-11-09T16:46:34.639345,698,-0.32,0.84,197.44,3048.32,0.0,0.004,0.015,1.042,69683.36,28.95,0,0,0.0,0.0,0.0,0.0,0.97,-23.0
2025-11-09T16:46:34.737840,699,-0.32,0.84,197.43,3048.32,0.0,0.005,0.014,1.041,69683.36,28.93,0,0,0.0,0.0,0.0,0.0,0.97,-22.0
2025-11-09T16:46:34.840034,700,-0.32,0.84,197.42,3048.32,0.0,0.006,0.016,1.043,69683.36,28.96,0,0,0.0,0.0,0.0,0.0,0.97,-22.0
2025-11-09T16:46:34.938418,701,-0.32,0.84,197.41,3048.32,0.0,0.005,0.015,1.041,69683.36,28.98,0,0,0.0,0.0,0.0,0.0,0.97,-24.0
2025-11-09T16:46:35.040702,702,-0.32,0.84,197.4,3048.32,0.0,0.004,0.014,1.042,69683.36,28.96,0,0,0.0,0.0,0.0,0.0,0.97,-22.0
2025-11-09T16:46:35.139193,703,-0.32,0.84,197.41,3048.32,0.0,0.006,0.015,1.043,69683.36,28.93,0,0,0.0,0.0,0.0,0.0,0.97,-23.0
2025-11-09T16:46:35.237564,704,-0.32,0.84,197.4,3048.32,0.0,0.006,0.014,1.042,69683.36,28.93,0,0,0.0,0.0,0.0,0.0,0.97,-22.0
2025-11-09T16:46:35.339779,705,-0.32,0.84,197.39,3048.32,0.0,0.005,0.017,1.041,69683.36,28.94,0,0,0.0,0.0,0.0,0.0,0.97,-23.0
2025-11-09T16:46:35.438231,706,-0.32,0.84,197.37,3048.32,0.0,0.004,0.016,1.043,69683.36,28.94,0,0,0.0,0.0,0.0,0.0,0.97,-22.0
2025-11-09T16:46:35.540410,707,-0.32,0.84,197.36,3048.32,0.0,0.006,0.016,1.043,69683.36,28.91,0,0,0.0,0.0,0.0,0.0,0.97,-22.0
2025-11-09T16:46:35.638783,708,-0.32,0.84,197.36,3048.32,0.0,0.006,0.015,1.043,69683.36,28.94,0,0,0.0,0.0,0.0,0.0,0.97,-23.0
2025-11-09T16:46:35.737285,709,-0.32,0.84,197.35,3048.32,0.0,0.006,0.014,1.043,69683.36,28.94,0,0,0.0,0.0,0.0,0.0,0.97,-23.0
2025-11-09T16:46:35.839567,710,-0.32,0.84,197.35,3048.32,0.0,0.005,0.016,1.043,69683.36,28.98,0,0,0.0,0.0,0.0,0.0,0.97,-23.0
2025-11-09T16:46:35.937902,711,-0.32,0.84,197.35,3048.32,0.0,0.005,0.015,1.042,69683.36,28.93,0,0,0.0,0.0,0.0,0.0,0.97,-23.0
2025-11-09T16:46:36.040337,712,-0.32,0.84,197.35,3048.32,0.0,0.005,0.015,1.04,69683.36,28.95,0,0,0.0,0.0,0.0,0.0,0.97,-22.0
2025-11-09T16:46:36.138556,713,-0.32,0.84,197.35,3048.32,0.0,0.004,0.016,1.041,69683.36,28.97,0,0,0.0,0.0,0.0,0.0,0.97,-23.0
2025-11-09T16:46:36.240953,714,-0.32,0.84,197.36,3048.32,0.0,0.006,0.018,1.042,69683.36,28.93,0,0,0.0,0.0,0.0,0.0,0.97,-23.0
2025-11-09T16:46:36.339293,715,-0.32,0.84,197.37,3048.32,0.0,0.006,0.016,1.042,69683.36,28.98,0,0,0.0,0.0,0.0,0.0,0.97,-22.0
2025-11-09T16:46:36.437787,716,-0.32,0.84,197.36,3048.32,0.0,0.005,0.016,1.048,69683.36,28.95,0,0,0.0,0.0,0.0,0.0,0.97,-23.0
2025-11-09T16:46:36.540191,717,-0.32,0.84,197.36,3048.32,0.0,0.005,0.015,1.042,69683.36,28.96,0,0,0.0,0.0,0.0,0.0,0.97,-23.0
2025-11-09T16:46:36.638716,718,-0.32,0.84,197.37,3048.32,0.0,0.006,0.014,1.039,69683.36,28.9,0,0,0.0,0.0,0.0,0.0,0.97,-22.0
2025-11-09T16:46:36.740535,719,-0.32,0.84,197.38,3048.32,0.0,0.006,0.016,1.041,69683.36,29.0,0,0,0.0,0.0,0.0,0.0,0.97,-23.0
2025-11-09T16:46:36.839266,720,-0.32,0.84,197.39,3048.32,0.0,0.005,0.016,1.042,69683.36,28.94,0,0,0.0,0.0,0.0,0.0,0.97,-23.0
2025-11-09T16:46:36.941265,721,-0.32,0.85,197.41,3048.32,0.0,0.004,0.016,1.042,69683.36,28.94,0,0,0.0,0.0,0.0,0.0,0.97,-22.0
2025-11-09T16:46:37.039786,722,-0.32,0.85,197.41,3048.32,0.0,0.007,0.016,1.041,69683.36,28.96,0,0,0.0,0.0,0.0,0.0,0.97,-22.0
2025-11-09T16:46:37.139224,723,-0.32,0.84,197.41,3048.32,0.0,0.005,0.015,1.042,69683.36,28.96,0,0,0.0,0.0,0.0,0.0,0.97,-23.0
2025-11-09T16:46:37.240490,724,-0.32,0.84,197.4,3048.32,0.0,0.005,0.016,1.043,69683.36,28.94,0,0,0.0,0.0,0.0,0.0,0.97,-23.0
2025-11-09T16:46:37.339118,725,-0.32,0.84,197.39,3048.32,0.0,0.005,0.014,1.045,69683.36,28.93,0,0,0.0,0.0,0.0,0.0,0.97,-23.0
2025-11-09T16:46:37.441010,726,-0.32,0.84,197.39,3048.32,0.0,0.005,0.016,1.042,69683.36,28.97,0,0,0.0,0.0,0.0,0.0,0.97,-23.0
2025-11-09T16:46:37.539366,727,-0.32,0.84,197.37,3048.32,0.0,0.005,0.014,1.04,69683.36,28.94,0,0,0.0,0.0,0.0,0.0,0.97,-22.0
2025-11-09T16:46:37.641487,728,-0.32,0.84,197.37,3048.32,0.0,0.005,0.016,1.045,69683.36,28.95,0,0,0.0,0.0,0.0,0.0,0.97,-23.0
2025-11-09T16:46:37.740259,729,-0.32,0.84,197.35,3048.32,0.0,0.005,0.014,1.043,69683.36,28.94,0,0,0.0,0.0,0.0,0.0,0.97,-23.0
2025-11-09T16:46:37.838573,730,-0.32,0.84,197.32,3048.32,0.0,0.004,0.015,1.041,69683.36,28.93,0,0,0.0,0.0,0.0,0.0,0.97,-23.0
2025-11-09T16:46:37.940809,731,-0.32,0.84,197.32,3048.32,0.0,0.005,0.016,1.041,69683.36,29.0,0,0,0.0,0.0,0.0,0.0,0.97,-23.0
2025-11-09T16:46:38.039427,732,-0.32,0.84,197.32,3048.32,0.0,0.007,0.016,1.043,69683.36,28.96,0,0,0.0,0.0,0.0,0.0,0.97,-22.0
2025-11-09T16:46:38.141360,733,-0.32,0.84,197.31,3048.32,0.0,0.005,0.016,1.042,69683.36,28.95,0,0,0.0,0.0,0.0,0.0,0.97,-23.0
2025-11-09T16:46:38.240186,734,-0.32,0.84,197.32,3048.32,0.0,0.006,0.014,1.04,69683.36,28.95,0,0,0.0,0.0,0.0,0.0,0.97,-23.0
2025-11-09T16:46:38.338280,735,-0.32,0.84,197.31,3048.32,0.0,0.005,0.015,1.043,69683.36,28.97,0,0,0.0,0.0,0.0,0.0,0.97,-22.0
2025-11-09T16:46:38.440613,736,-0.32,0.84,197.31,3048.32,0.0,0.004,0.015,1.041,69683.36,28.96,0,0,0.0,0.0,0.0,0.0,0.97,-22.0
2025-11-09T16:46:38.538827,737,-0.32,0.84,197.32,3048.32,0.0,0.005,0.015,1.04,69683.36,28.95,0,0,0.0,0.0,0.0,0.0,0.97,-23.0
2025-11-09T16:46:38.640985,738,-0.32,0.84,197.32,3048.32,0.0,0.004,0.017,1.051,69683.36,28.95,0,0,0.0,0.0,0.0,0.0,0.97,-23.0
2025-11-09T16:46:38.739449,739,-0.32,0.84,197.32,3048.32,0.0,0.003,0.014,1.043,69683.36,28.94,0,0,0.0,0.0,0.0,0.0,0.97,-24.0
2025-11-09T16:46:38.841677,740,-0.32,0.84,197.29,3048.32,0.0,0.006,0.014,1.042,69683.36,28.95,0,0,0.0,0.0,0.0,0.0,0.97,-23.0
2025-11-09T16:46:38.940198,741,-0.32,0.84,197.3,3048.32,0.0,0.005,0.015,1.041,69683.36,28.94,0,0,0.0,0.0,0.0,0.0,0.97,-23.0
2025-11-09T16:46:39.038970,742,-0.32,0.84,197.29,3048.32,0.0,0.006,0.014,1.044,69683.36,28.97,0,0,0.0,0.0,0.0,0.0,0.97,-22.0
2025-11-09T16:46:39.140918,743,-0.32,0.84,197.28,3048.32,0.0,0.005,0.015,1.041,69683.36,28.93,0,0,0.0,0.0,0.0,0.0,0.97,-22.0
2025-11-09T16:46:39.239157,744,-0.32,0.84,197.29,3048.32,0.0,0.006,0.015,1.042,69683.36,28.88,0,0,0.0,0.0,0.0,0.0,0.97,-22.0
2025-11-09T16:46:39.341366,745,-0.32,0.84,197.3,3048.32,0.0,0.005,0.015,1.043,69683.36,28.94,0,0,0.0,0.0,0.0,0.0,0.97,-22.0
2025-11-09T16:46:39.439857,746,-0.32,0.83,197.28,3048.32,0.0,0.007,0.015,1.043,69683.36,28.93,0,0,0.0,0.0,0.0,0.0,0.97,-22.0
2025-11-09T16:46:39.541904,747,-0.32,0.83,197.28,3048.32,0.0,0.005,0.014,1.043,69683.36,28.94,0,0,0.0,0.0,0.0,0.0,0.97,-22.0
2025-11-09T16:46:39.640455,748,-0.32,0.83,197.28,3048.32,0.0,0.005,0.014,1.043,69683.36,28.95,0,0,0.0,0.0,0.0,0.0,0.97,-23.0
2025-11-09T16:46:39.738857,749,-0.32,0.83,197.28,3048.32,0.0,0.006,0.016,1.042,69683.36,28.94,0,0,0.0,0.0,0.0,0.0,0.97,-23.0
2025-11-09T16:46:39.841346,750,-0.32,0.83,197.28,3048.32,0.0,0.006,0.015,1.042,69683.36,28.93,0,0,0.0,0.0,0.0,0.0,0.97,-22.0
2025-11-09T16:46:39.939472,751,-0.32,0.83,197.29,3048.32,0.0,0.004,0.015,1.041,69683.36,28.96,0,0,0.0,0.0,0.0,0.0,0.97,-23.0
2025-11-09T16:46:40.041667,752,-0.32,0.83,197.28,3048.32,0.0,0.006,0.016,1.043,69683.36,28.96,0,0,0.0,0.0,0.0,0.0,0.97,-23.0
2025-11-09T16:46:40.140166,753,-0.32,0.83,197.29,3048.32,0.0,0.005,0.016,1.043,69683.36,28.93,0,0,0.0,0.0,0.0,0.0,0.97,-22.0
2025-11-09T16:46:40.238598,754,-0.32,0.84,197.29,3048.32,0.0,0.005,0.016,1.041,69683.36,28.95,0,0,0.0,0.0,0.0,0.0,0.97,-23.0
2025-11-09T16:46:40.340806,755,-0.32,0.84,197.3,3048.32,0.0,0.005,0.016,1.043,69683.36,28.92,0,0,0.0,0.0,0.0,0.0,0.97,-23.0
2025-11-09T16:46:40.439310,756,-0.32,0.84,197.3,3048.32,0.0,0.005,0.016,1.042,69683.36,28.98,0,0,0.0,0.0,0.0,0.0,0.97,-22.0
2025-11-09T16:46:40.541430,757,-0.32,0.84,197.3,3048.32,0.0,0.006,0.015,1.041,69683.36,28.94,0,0,0.0,0.0,0.0,0.0,0.97,-22.0
2025-11-09T16:46:40.639818,758,-0.32,0.84,197.3,3048.32,0.0,0.006,0.013,1.042,69683.36,28.95,0,0,0.0,0.0,0.0,0.0,0.97,-22.0
2025-11-09T16:46:40.741973,759,-0.32,0.84,197.32,3048.32,0.0,0.004,0.016,1.041,69683.36,28.93,0,0,0.0,0.0,0.0,0.0,0.97,-23.0
2025-11-09T16:46:40.840449,760,-0.32,0.84,197.33,3048.32,0.0,0.005,0.016,1.041,69683.36,28.94,0,0,0.0,0.0,0.0,0.0,0.97,-22.0
2025-11-09T16:46:40.938920,761,-0.32,0.84,197.33,3048.32,0.0,0.006,0.014,1.041,69683.36,28.97,0,0,0.0,0.0,0.0,0.0,0.97,-23.0
2025-11-09T16:46:41.041089,762,-0.32,0.84,197.31,3048.32,0.0,0.005,0.014,1.043,69683.36,28.9,0,0,0.0,0.0,0.0,0.0,0.97,-22.0
2025-11-09T16:46:41.139544,763,-0.32,0.84,197.31,3048.32,0.0,0.004,0.015,1.044,69683.36,28.98,0,0,0.0,0.0,0.0,0.0,0.97,-23.0
2025-11-09T16:46:41.241684,764,-0.32,0.84,197.31,3048.32,0.0,0.004,0.015,1.042,69683.36,28.92,0,0,0.0,0.0,0.0,0.0,0.97,-22.0
2025-11-09T16:46:41.340192,765,-0.32,0.84,197.32,3048.32,0.0,0.003,0.016,1.041,69683.36,28.92,0,0,0.0,0.0,0.0,0.0,0.97,-23.0
2025-11-09T16:46:41.442345,766,-0.32,0.84,197.33,3048.32,0.0,0.005,0.016,1.043,69683.36,28.96,0,0,0.0,0.0,0.0,0.0,0.97,-22.0
2025-11-09T16:46:41.540865,767,-0.32,0.84,197.33,3048.32,0.0,0.005,0.015,1.04,69683.36,28.99,0,0,0.0,0.0,0.0,0.0,0.97,-23.0
2025-11-09T16:46:41.639299,768,-0.32,0.84,197.34,3048.32,0.0,0.006,0.016,1.041,69683.36,28.95,0,0,0.0,0.0,0.0,0.0,0.97,-22.0
2025-11-09T16:46:41.741466,769,-0.32,0.84,197.34,3048.32,0.0,0.005,0.015,1.04,69683.36,28.95,0,0,0.0,0.0,0.0,0.0,0.97,-23.0
2025-11-09T16:46:41.839921,770,-0.32,0.84,197.34,3048.32,0.0,0.004,0.015,1.043,69683.36,28.96,0,0,0.0,0.0,0.0,0.0,0.97,-22.0
2025-11-09T16:46:41.942073,771,-0.32,0.84,197.36,3048.32,0.0,0.006,0.015,1.04,69683.36,28.94,0,0,0.0,0.0,0.0,0.0,0.97,-22.0
2025-11-09T16:46:42.040512,772,-0.32,0.84,197.36,3048.32,0.0,0.004,0.014,1.043,69683.36,28.91,0,0,0.0,0.0,0.0,0.0,0.97,-23.0
2025-11-09T16:46:42.138995,773,-0.32,0.84,197.37,3048.32,0.0,0.006,0.014,1.043,69683.36,28.91,0,0,0.0,0.0,0.0,0.0,0.97,-22.0
2025-11-09T16:46:42.241177,774,-0.32,0.84,197.38,3048.32,0.0,0.005,0.015,1.044,69683.36,28.93,0,0,0.0,0.0,0.0,0.0,0.97,-23.0
2025-11-09T16:46:42.339694,775,-0.32,0.83,197.39,3048.32,0.0,0.006,0.016,1.044,69683.36,28.93,0,0,0.0,0.0,0.0,0.0,0.97,-23.0
2025-11-09T16:46:42.441784,776,-0.32,0.84,197.4,3048.32,0.0,0.006,0.016,1.042,69683.36,28.96,0,0,0.0,0.0,0.0,0.0,0.97,-23.0
2025-11-09T16:46:42.540268,777,-0.32,0.84,197.41,3048.32,0.0,0.003,0.015,1.041,69683.36,28.98,0,0,0.0,0.0,0.0,0.0,0.97,-23.0
2025-11-09T16:46:42.642399,778,-0.32,0.84,197.42,3048.32,0.0,0.005,0.015,1.039,69683.36,28.89,0,0,0.0,0.0,0.0,0.0,0.97,-22.0
2025-11-09T16:46:42.740907,779,-0.32,0.84,197.43,3048.32,0.0,0.006,0.016,1.04,69683.36,28.89,0,0,0.0,0.0,0.0,0.0,0.97,-22.0
2025-11-09T16:46:42.839435,780,-0.33,0.84,197.46,3048.32,0.0,0.005,0.015,1.042,69683.36,28.92,0,0,0.0,0.0,0.0,0.0,0.97,-22.0
2025-11-09T16:46:42.941516,781,-0.32,0.84,197.48,3048.32,0.0,0.005,0.016,1.046,69683.36,28.92,0,0,0.0,0.0,0.0,0.0,0.97,-23.0
2025-11-09T16:46:43.039994,782,-0.32,0.84,197.49,3048.32,0.0,0.005,0.016,1.04,69683.36,28.95,0,0,0.0,0.0,0.0,0.0,0.97,-24.0
2025-11-09T16:46:43.142152,783,-0.32,0.84,197.49,3048.32,0.0,0.004,0.015,1.042,69683.36,28.96,0,0,0.0,0.0,0.0,0.0,0.97,-23.0
2025-11-09T16:46:43.240728,784,-0.32,0.84,197.49,3048.32,0.0,0.005,0.014,1.042,69683.36,28.94,0,0,0.0,0.0,0.0,0.0,0.97,-23.0
2025-11-09T16:46:43.342850,785,-0.32,0.84,197.5,3048.32,0.0,0.002,0.016,1.044,69683.36,28.94,0,0,0.0,0.0,0.0,0.0,0.97,-23.0
2025-11-09T16:46:43.441640,786,-0.32,0.84,197.51,3048.32,0.0,0.007,0.014,1.043,69683.36,28.93,0,0,0.0,0.0,0.0,0.0,0.97,-23.0
2025-11-09T16:46:43.540318,787,-0.32,0.84,197.51,3048.32,0.0,0.005,0.014,1.042,69683.36,28.91,0,0,0.0,0.0,0.0,0.0,0.97,-22.0
2025-11-09T16:46:43.641996,788,-0.32,0.84,197.52,3048.32,0.0,0.004,0.016,1.043,69683.36,28.93,0,0,0.0,0.0,0.0,0.0,0.97,-22.0
2025-11-09T16:46:43.740393,789,-0.33,0.84,197.52,3048.32,0.0,0.006,0.016,1.046,69683.36,28.94,0,0,0.0,0.0,0.0,0.0,0.97,-23.0
2025-11-09T16:46:43.842539,790,-0.32,0.84,197.52,3048.32,0.0,0.006,0.016,1.042,69683.36,28.93,0,0,0.0,0.0,0.0,0.0,0.97,-23.0
2025-11-09T16:46:43.941107,791,-0.33,0.84,197.53,3048.32,0.0,0.006,0.015,1.042,69683.36,28.93,0,0,0.0,0.0,0.0,0.0,0.97,-23.0
2025-11-09T16:46:44.039896,792,-0.33,0.84,197.54,3048.32,0.0,0.005,0.014,1.041,69683.36,28.91,0,0,0.0,0.0,0.0,0.0,0.97,-22.0
2025-11-09T16:46:44.142183,793,-0.33,0.84,197.56,3048.32,0.0,0.005,0.013,1.042,69683.36,28.97,0,0,0.0,0.0,0.0,0.0,0.97,-23.0
2025-11-09T16:46:44.240140,794,-0.33,0.84,197.56,3048.32,0.0,0.007,0.016,1.042,69683.36,28.93,0,0,0.0,0.0,0.0,0.0,0.97,-22.0
2025-11-09T16:46:44.342264,795,-0.33,0.84,197.55,3048.32,0.0,0.004,0.014,1.042,69683.36,28.95,0,0,0.0,0.0,0.0,0.0,0.97,-22.0
2025-11-09T16:46:44.440898,796,-0.33,0.84,197.56,3048.32,0.0,0.005,0.016,1.043,69683.36,28.96,0,0,0.0,0.0,0.0,0.0,0.97,-23.0
2025-11-09T16:46:44.543097,797,-0.33,0.84,197.58,3048.32,0.0,0.003,0.015,1.041,69683.36,28.97,0,0,0.0,0.0,0.0,0.0,0.97,-23.0
2025-11-09T16:46:44.641543,798,-0.33,0.84,197.6,3048.32,0.0,0.006,0.015,1.041,69683.36,28.93,0,0,0.0,0.0,0.0,0.0,0.97,-22.0
2025-11-09T16:46:44.739829,799,-0.33,0.84,197.6,3048.32,0.0,0.006,0.017,1.042,69683.36,28.87,0,0,0.0,0.0,0.0,0.0,0.97,-23.0
2025-11-09T16:46:44.842013,800,-0.33,0.85,197.61,3048.32,0.0,0.006,0.015,1.042,69683.36,28.94,0,0,0.0,0.0,0.0,0.0,0.97,-23.0
2025-11-09T16:46:44.940441,801,-0.33,0.85,197.63,3048.32,0.0,0.005,0.017,1.04,69683.36,28.9,0,0,0.0,0.0,0.0,0.0,0.97,-22.0
2025-11-09T16:46:45.042629,802,-0.33,0.85,197.64,3048.32,0.0,0.005,0.016,1.041,69683.36,28.95,0,0,0.0,0.0,0.0,0.0,0.97,-23.0
2025-11-09T16:46:45.141141,803,-0.33,0.85,197.64,3048.32,0.0,0.005,0.016,1.04,69683.36,28.92,0,0,0.0,0.0,0.0,0.0,0.97,-22.0
2025-11-09T16:46:45.239555,804,-0.33,0.85,197.64,3048.32,0.0,0.006,0.014,1.041,69683.36,28.93,0,0,0.0,0.0,0.0,0.0,0.97,-22.0
2025-11-09T16:46:45.341865,805,-0.33,0.85,197.66,3048.32,0.0,0.004,0.016,1.046,69683.36,28.94,0,0,0.0,0.0,0.0,0.0,0.97,-24.0
2025-11-09T16:46:45.440223,806,-0.33,0.85,197.68,3048.32,0.0,0.005,0.017,1.041,69683.36,28.89,0,0,0.0,0.0,0.0,0.0,0.97,-23.0
2025-11-09T16:46:45.542648,807,-0.33,0.85,197.68,3048.32,0.0,0.005,0.015,1.041,69683.36,28.91,0,0,0.0,0.0,0.0,0.0,0.97,-23.0
2025-11-09T16:46:45.641033,808,-0.33,0.85,197.7,3048.32,0.0,0.004,0.015,1.042,69683.36,28.92,0,0,0.0,0.0,0.0,0.0,0.97,-22.0
2025-11-09T16:46:45.743103,809,-0.33,0.85,197.7,3048.32,0.0,0.003,0.016,1.041,69683.36,28.95,0,0,0.0,0.0,0.0,0.0,0.97,-22.0
